intro.started,intro.stopped,button_6.numClicks,button_6.timesOn,button_6.timesOff,participant,date,expName,psychopyVersion,OS,frameRate,timing_info.started,timing_info.stopped,button_7.numClicks,button_7.timesOn,button_7.timesOff,hand_positions.started,hand_positions.stopped,space_bar.keys,space_bar.rt,space_bar.duration,train_keys.started,train_keys.stopped,key_resp.keys,key_resp.rt,key_resp.duration,score.started,score.stopped,training_rounds,training.thisRepN,training.thisTrialN,training.thisN,training.thisIndex,training.ran,test_instruct.started,test_instruct.stopped,instruct_cont.started,instruct_cont.stopped,point_instruct.started,point_instruct.stopped,accident_instruct.started,accident_instruct.stopped,advance.started,advance.stopped,flip_video.started,flip_video.stopped,trial_type,buffer.started,buffer.stopped,collision.started,collision.stopped,selection,stimuli_path,select_resp.keys,select_resp.rt,select_resp.duration,resp_trial,responsibility.started,responsibility.stopped,conf_2.response,button.numClicks,button.timesOn,button.timesOff,conf_one,conf_two,conf_three,conf_3.response,conf_1.response,forfeit.started,forfeit.stopped,forfeit_button.numClicks,forfeit_button.timesOn,forfeit_button.timesOff,keep_button.numClicks,keep_button.timesOn,keep_button.timesOff,accuracy.started,accuracy.stopped,rt_diff,acc_points,keep_round,practice_round,begin_review.started,begin_review.stopped,space_bar_6.keys,space_bar_6.rt,space_bar_6.duration,review_keys.started,review_keys.stopped,key_resp_2.keys,key_resp_2.rt,key_resp_2.duration,review_trials,baseline_rts,review.thisRepN,review.thisTrialN,review.thisN,review.thisIndex,review.ran,trials.thisRepN,trials.thisTrialN,trials.thisN,trials.thisIndex,trials.ran,transition.started,transition.stopped,calibrate_instruct.started,calibrate_instruct.stopped,flip_calibration.started,flip_calibration.stopped,calibrate.started,calibrate.stopped,prediction.started,prediction.stopped,miss.numClicks,miss.timesOn,miss.timesOff,hit.numClicks,hit.timesOn,hit.timesOff,calibration_pred,calibration_actual,calibration_score,cal_feedback.started,cal_feedback.stopped,space_bar_12.keys,space_bar_12.rt,space_bar_12.duration,calibration.thisRepN,calibration.thisTrialN,calibration.thisN,calibration.thisIndex,calibration.ran
0.0003,5.755,1,[0.7805],[0.7805],5bb58e338f3bd70001e5df57,2026-02-02_21h00.20.478,causal,2025.1.1,MacIntel,59.88023952,,,,,,,,,,,,,,,,,,,,,,,,,,,,,,,,,,,,,,,,,,,,,,,,,,,,,,,,,,,,,,,,,,,,,,,,,,,,,,,,,,,,,,,,,,,,,,,,,,,,,,,,,,,,,,,,,,,,,,,,,,
,,,,,5bb58e338f3bd70001e5df57,2026-02-02_21h00.20.478,causal,2025.1.1,MacIntel,59.88023952,5.7552,13.8508,1,[3.1198999999761554],[3.1198999999761554],,,,,,,,,,,,,,,,,,,,,,,,,,,,,,,,,,,,,,,,,,,,,,,,,,,,,,,,,,,,,,,,,,,,,,,,,,,,,,,,,,,,,,,,,,,,,,,,,,,,,,,,,,,,,,,,,,,,,
,,,,,5bb58e338f3bd70001e5df57,2026-02-02_21h00.20.478,causal,2025.1.1,MacIntel,59.88023952,,,,,,13.8509,36.9382,"[""space"",""space""]","[1.081000000000003,20.00859999996424]","[null,null]",,,,,,,,,,,,,,,,,,,,,,,,,,,,,,,,,,,,,,,,,,,,,,,,,,,,,,,,,,,,,,,,,,,,,,,,,,,,,,,,,,,,,,,,,,,,,,,,,,,,,,,,,,,,,,,,
,,,,,5bb58e338f3bd70001e5df57,2026-02-02_21h00.20.478,causal,2025.1.1,MacIntel,59.88023952,,,,,,,,,,,113.5776,114.6213,j,0.7122,,114.6218,116.7351,1,0,0,0,0,1,,,,,,,,,,,,,,,,,,,,,,,,,,,,,,,,,,,,,,,,,,,,,,,,,,,,,,,,,,,,,,,,,,,,,,,,,,,,,,,,,,,,,,,,,,,,,,,,,,,
,,,,,5bb58e338f3bd70001e5df57,2026-02-02_21h00.20.478,causal,2025.1.1,MacIntel,59.88023952,,,,,,,,,,,,,,,,,,,,,,,,116.7356,144.6063,,,,,,,,,,,,,,,,,,,,,,,,,,,,,,,,,,,,,,,,,,,,,,,,,,,,,,,,,,,,,,,,,,,,,,,,,,,,,,,,,,,,,,,,,,,,,,,,,
,,,,,5bb58e338f3bd70001e5df57,2026-02-02_21h00.20.478,causal,2025.1.1,MacIntel,59.88023952,,,,,,,,,,,,,,,,,,,,,,,,,,144.6065,152.424,,,,,,,,,,,,,,,,,,,,,,,,,,,,,,,,,,,,,,,,,,,,,,,,,,,,,,,,,,,,,,,,,,,,,,,,,,,,,,,,,,,,,,,,,,,,,,,
,,,,,5bb58e338f3bd70001e5df57,2026-02-02_21h00.20.478,causal,2025.1.1,MacIntel,59.88023952,,,,,,,,,,,,,,,,,,,,,,,,,,,,152.4242,165.2009,,,,,,,,,,,,,,,,,,,,,,,,,,,,,,,,,,,,,,,,,,,,,,,,,,,,,,,,,,,,,,,,,,,,,,,,,,,,,,,,,,,,,,,,,,,,,
,,,,,5bb58e338f3bd70001e5df57,2026-02-02_21h00.20.478,causal,2025.1.1,MacIntel,59.88023952,,,,,,,,,,,,,,,,,,,,,,,,,,,,,,165.201,170.0773,,,,,,,,,,,,,,,,,,,,,,,,,,,,,,,,,,,,,,,,,,,,,,,,,,,,,,,,,,,,,,,,,,,,,,,,,,,,,,,,,,,,,,,,,,,
,,,,,5bb58e338f3bd70001e5df57,2026-02-02_21h00.20.478,causal,2025.1.1,MacIntel,59.88023952,,,,,,,,,,,,,,,,,,,,,,,,,,,,,,,,170.0854,171.4313,171.4315,171.4315,train,217.0266,218.0536,172.9543,179.6196,green,stimuli/collisions/training/stim2.mp4,k,6.2622,,TRUE,179.6203,187.9066,100,1,[0.799400000035746],[0.799400000035746],red,green,blue,1,1,187.9068,190.1968,0,[],[],1,[190.20380000001194],[190.20380000001194],190.1971,193.4929,-2.2622,-40,TRUE,TRUE,193.493,196.198,"[""space""]",[0.6765000000000043],[null],218.0537,219.2909,space,0.9033,,9,"[1.44,1.11,1.07,0.85,0.61,0.82,0.72,0.66,1.29,0.9]",9,0,9,0,1,,,,,,,,,,,,,,,,,,,,,,,,,,,,,,,,,,
,,,,,5bb58e338f3bd70001e5df57,2026-02-02_21h00.20.478,causal,2025.1.1,MacIntel,59.88023952,,,,,,,,,,,,,,,,,,,,,,,,,,,,,,,,,,,,,,,,,,,,,,,,,,,,,,,,,,,,,,,,,,,,,,,,,,,,,,,,,,,,,,,,,0,0,0,0,1,,,,,,,,,,,,,,,,,,,,,,,,,,,,,
,,,,,5bb58e338f3bd70001e5df57,2026-02-02_21h00.20.478,causal,2025.1.1,MacIntel,59.88023952,,,,,,,,,,,,,,,,,,,,,,,,,,,,,,,,219.2914,220.1968,220.1968,220.1968,train,234.2427,234.2428,221.7079,224.8937,red,stimuli/collisions/training/stim1.mp4,j,2.7477,,TRUE,224.8988,229.9284,2,1,[0.7853000000119152],[0.7853000000119152],red,green,blue,5,100,229.9293,231.3295,0,[],[],1,[231.33660000002385],[231.33660000002385],231.3297,234.242,1.3923,-10,TRUE,FALSE,234.2421,234.2421,,,,234.2428,234.2432,,,,,,0,0,0,0,1,,,,,,,,,,,,,,,,,,,,,,,,,,,,,,,,,,
,,,,,5bb58e338f3bd70001e5df57,2026-02-02_21h00.20.478,causal,2025.1.1,MacIntel,59.88023952,,,,,,,,,,,,,,,,,,,,,,,,,,,,,,,,,,,,,,,,,,,,,,,,,,,,,,,,,,,,,,,,,,,,,,,,,,,,,,,,,,,,,,,,,1,0,1,0,1,,,,,,,,,,,,,,,,,,,,,,,,,,,,,
,,,,,5bb58e338f3bd70001e5df57,2026-02-02_21h00.20.478,causal,2025.1.1,MacIntel,59.88023952,,,,,,,,,,,,,,,,,,,,,,,,,,,,,,,,234.2434,235.1462,235.1464,235.1464,train,250.1413,250.1415,236.6472,238.8888,green,stimuli/collisions/training/stim3.mp4,k,1.8267,,TRUE,238.8913,245.8745,99,1,[1.370699999988119],[1.370699999988119],red,green,blue,1,1,245.8757,247.1588,0,[],[],1,[247.16590000003578],[247.16590000003578],247.159,250.1406,1.4433,20,TRUE,FALSE,250.1406,250.1407,,,,250.1415,250.1417,,,,,,0,0,0,0,1,,,,,,,,,,,,,,,,,,,,,,,,,,,,,,,,,,
,,,,,5bb58e338f3bd70001e5df57,2026-02-02_21h00.20.478,causal,2025.1.1,MacIntel,59.88023952,,,,,,,,,,,,,,,,,,,,,,,,,,,,,,,,,,,,,,,,,,,,,,,,,,,,,,,,,,,,,,,,,,,,,,,,,,,,,,,,,,,,,,,,,2,0,2,0,1,,,,,,,,,,,,,,,,,,,,,,,,,,,,,
,,,,,5bb58e338f3bd70001e5df57,2026-02-02_21h00.20.478,causal,2025.1.1,MacIntel,59.88023952,,,,,,,,,,,,,,,,,,,,,,,,,,,,,,,,250.1418,251.9003,251.9004,251.9004,test,267.5599,267.5628,253.4081,256.0553,blue,stimuli/collisions/hit/stim9.mp4,j,2.52,,TRUE,256.0572,263.7246,5,1,[1.16519999998809],[1.16519999998809],red,green,blue,95,63,263.7262,264.8239,0,[],[],1,[264.83110000002387],[264.83110000002387],264.8241,267.5592,0.7869,45,TRUE,FALSE,267.5592,267.5592,,,,267.5629,267.5633,,,,,,0,0,0,0,1,,,,,,,,,,,,,,,,,,,,,,,,,,,,,,,,,,
,,,,,5bb58e338f3bd70001e5df57,2026-02-02_21h00.20.478,causal,2025.1.1,MacIntel,59.88023952,,,,,,,,,,,,,,,,,,,,,,,,,,,,,,,,,,,,,,,,,,,,,,,,,,,,,,,,,,,,,,,,,,,,,,,,,,,,,,,,,,,,,,,,,3,0,3,0,1,,,,,,,,,,,,,,,,,,,,,,,,,,,,,
,,,,,5bb58e338f3bd70001e5df57,2026-02-02_21h00.20.478,causal,2025.1.1,MacIntel,59.88023952,,,,,,,,,,,,,,,,,,,,,,,,,,,,,,,,267.5639,268.2301,268.2302,268.2302,test,285.0592,285.0593,269.7396,272.0876,blue,stimuli/collisions/hit/stim18.mp4,f,1.949,,TRUE,272.0886,279.2803,35,1,[1.2083000000118886],[1.2083000000118886],red,green,blue,100,4,279.2808,280.1385,0,[],[],1,[280.1456000000239],[280.1456000000239],280.1386,285.0585,1.191,75,TRUE,FALSE,285.0586,285.0586,,,,285.0593,285.0597,,,,,,0,0,0,0,1,,,,,,,,,,,,,,,,,,,,,,,,,,,,,,,,,,
,,,,,5bb58e338f3bd70001e5df57,2026-02-02_21h00.20.478,causal,2025.1.1,MacIntel,59.88023952,,,,,,,,,,,,,,,,,,,,,,,,,,,,,,,,,,,,,,,,,,,,,,,,,,,,,,,,,,,,,,,,,,,,,,,,,,,,,,,,,,,,,,,,,4,0,4,0,1,,,,,,,,,,,,,,,,,,,,,,,,,,,,,
,,,,,5bb58e338f3bd70001e5df57,2026-02-02_21h00.20.478,causal,2025.1.1,MacIntel,59.88023952,,,,,,,,,,,,,,,,,,,,,,,,,,,,,,,,285.0598,285.8308,285.8308,285.8308,test,298.1671,298.1671,287.3338,289.7448,red,stimuli/collisions/hit/stim11.mp4,j,1.9753,,TRUE,289.7461,294.796,1,1,[0.6410000000000196],[0.6410000000000196],red,green,blue,1,100,294.7968,295.6712,0,[],[],1,[295.6783000000119],[295.6783000000119],295.6714,298.1665,1.5947,105,TRUE,FALSE,298.1666,298.1666,,,,298.1672,298.1674,,,,,,0,0,0,0,1,,,,,,,,,,,,,,,,,,,,,,,,,,,,,,,,,,
,,,,,5bb58e338f3bd70001e5df57,2026-02-02_21h00.20.478,causal,2025.1.1,MacIntel,59.88023952,,,,,,,,,,,,,,,,,,,,,,,,,,,,,,,,,,,,,,,,,,,,,,,,,,,,,,,,,,,,,,,,,,,,,,,,,,,,,,,,,,,,,,,,,5,0,5,0,1,,,,,,,,,,,,,,,,,,,,,,,,,,,,,
,,,,,5bb58e338f3bd70001e5df57,2026-02-02_21h00.20.478,causal,2025.1.1,MacIntel,59.88023952,,,,,,,,,,,,,,,,,,,,,,,,,,,,,,,,298.1674,300.002,300.0021,300.0021,test,313.5715,313.5716,301.5093,304.8555,red,stimuli/collisions/hit/stim5.mp4,f,3.1425,,TRUE,304.8573,310.0532,2,1,[0.8136000000238255],[0.8136000000238255],red,green,blue,3,99,310.054,311.0643,0,[],[],1,[311.0714000000358],[311.0714000000358],311.0645,313.5695,0.9955,130,TRUE,FALSE,313.5696,313.5696,,,,313.5717,313.5721,,,,,,0,0,0,0,1,,,,,,,,,,,,,,,,,,,,,,,,,,,,,,,,,,
,,,,,5bb58e338f3bd70001e5df57,2026-02-02_21h00.20.478,causal,2025.1.1,MacIntel,59.88023952,,,,,,,,,,,,,,,,,,,,,,,,,,,,,,,,,,,,,,,,,,,,,,,,,,,,,,,,,,,,,,,,,,,,,,,,,,,,,,,,,,,,,,,,,6,0,6,0,1,,,,,,,,,,,,,,,,,,,,,,,,,,,,,
,,,,,5bb58e338f3bd70001e5df57,2026-02-02_21h00.20.478,causal,2025.1.1,MacIntel,59.88023952,,,,,,,,,,,,,,,,,,,,,,,,,,,,,,,,313.5724,314.7856,314.7857,314.7857,test,326.7827,326.7828,316.2998,318.0194,red,stimuli/collisions/hit/stim1.mp4,j,1.3091,,TRUE,318.0259,323.7706,2,1,[0.7566999999880863],[0.7566999999880863],red,green,blue,2,99,323.7716,324.6758,0,[],[],1,[324.6829000000358],[324.6829000000358],324.6761,326.782,2.0609,165,TRUE,FALSE,326.782,326.782,,,,326.7828,326.783,,,,,,0,0,0,0,1,,,,,,,,,,,,,,,,,,,,,,,,,,,,,,,,,,
,,,,,5bb58e338f3bd70001e5df57,2026-02-02_21h00.20.478,causal,2025.1.1,MacIntel,59.88023952,,,,,,,,,,,,,,,,,,,,,,,,,,,,,,,,,,,,,,,,,,,,,,,,,,,,,,,,,,,,,,,,,,,,,,,,,,,,,,,,,,,,,,,,,7,0,7,0,1,,,,,,,,,,,,,,,,,,,,,,,,,,,,,
,,,,,5bb58e338f3bd70001e5df57,2026-02-02_21h00.20.478,causal,2025.1.1,MacIntel,59.88023952,,,,,,,,,,,,,,,,,,,,,,,,,,,,,,,,326.783,327.6726,327.6726,327.6727,test,365.9167,366.9225,329.1815,331.8537,blue,stimuli/collisions/hit/stim14.mp4,j,2.5085,,TRUE,331.8552,336.4309,2,1,[0.6179000000357746],[0.6179000000357746],red,green,blue,2,99,336.4318,338.9415,0,[],[],1,[338.9485],[338.9485],338.9416,341.5184,0.7131,190,TRUE,TRUE,341.5184,344.42,"[""space""]",[0.8956999999880964],[null],366.9226,368.1302,space,0.8756,,9,"[0.96,0.85,0.99,1.18,0.88,0.52,0.8,1.05,0.88]",9,0,9,0,1,,,,,,,,,,,,,,,,,,,,,,,,,,,,,,,,,,
,,,,,5bb58e338f3bd70001e5df57,2026-02-02_21h00.20.478,causal,2025.1.1,MacIntel,59.88023952,,,,,,,,,,,,,,,,,,,,,,,,,,,,,,,,,,,,,,,,,,,,,,,,,,,,,,,,,,,,,,,,,,,,,,,,,,,,,,,,,,,,,,,,,8,0,8,0,1,,,,,,,,,,,,,,,,,,,,,,,,,,,,,
,,,,,5bb58e338f3bd70001e5df57,2026-02-02_21h00.20.478,causal,2025.1.1,MacIntel,59.88023952,,,,,,,,,,,,,,,,,,,,,,,,,,,,,,,,368.1306,369.1432,369.1433,369.1433,test,383.2652,383.2653,370.6496,373.3462,green,stimuli/collisions/hit/stim7.mp4,k,2.3003,,TRUE,373.3527,379.673,100,1,[0.6476999999881059],[0.6476999999881059],red,green,blue,1,0,379.6747,380.6594,0,[],[],1,[380.6665],[380.6665],380.6597,383.264,0.9697,215,TRUE,FALSE,383.264,383.2646,,,,383.2653,383.2657,,,,,,0,0,0,0,1,,,,,,,,,,,,,,,,,,,,,,,,,,,,,,,,,,
,,,,,5bb58e338f3bd70001e5df57,2026-02-02_21h00.20.478,causal,2025.1.1,MacIntel,59.88023952,,,,,,,,,,,,,,,,,,,,,,,,,,,,,,,,,,,,,,,,,,,,,,,,,,,,,,,,,,,,,,,,,,,,,,,,,,,,,,,,,,,,,,,,,9,0,9,0,1,,,,,,,,,,,,,,,,,,,,,,,,,,,,,
,,,,,5bb58e338f3bd70001e5df57,2026-02-02_21h00.20.478,causal,2025.1.1,MacIntel,59.88023952,,,,,,,,,,,,,,,,,,,,,,,,,,,,,,,,383.2657,384.0368,384.0369,384.0369,test,400.6694,400.6695,385.5583,391.2772,blue,stimuli/collisions/hit/stim4.mp4,f,5.3213,,TRUE,391.2789,396.9859,2,1,[0.7856999999880827],[0.7856999999880827],red,green,blue,99,2,396.9868,397.8341,0,[],[],1,[397.8412000000477],[397.8412000000477],397.8342,400.6689,-1.3113,235,TRUE,FALSE,400.669,400.669,,,,400.6695,400.6696,,,,,,0,0,0,0,1,,,,,,,,,,,,,,,,,,,,,,,,,,,,,,,,,,
,,,,,5bb58e338f3bd70001e5df57,2026-02-02_21h00.20.478,causal,2025.1.1,MacIntel,59.88023952,,,,,,,,,,,,,,,,,,,,,,,,,,,,,,,,,,,,,,,,,,,,,,,,,,,,,,,,,,,,,,,,,,,,,,,,,,,,,,,,,,,,,,,,,10,0,10,0,1,,,,,,,,,,,,,,,,,,,,,,,,,,,,,
,,,,,5bb58e338f3bd70001e5df57,2026-02-02_21h00.20.478,causal,2025.1.1,MacIntel,59.88023952,,,,,,,,,,,,,,,,,,,,,,,,,,,,,,,,400.6697,401.5207,401.5207,401.5207,test,417.6965,417.6965,403.0281,406.7149,blue,stimuli/collisions/hit/stim13.mp4,f,3.2874,,TRUE,406.7158,412.6825,2,1,[1.3970999999642117],[1.3970999999642117],red,green,blue,99,3,412.6835,413.5035,0,[],[],1,[413.5107000000477],[413.5107000000477],413.5037,417.6956,0.4826,260,TRUE,FALSE,417.6956,417.6956,,,,417.6966,417.6967,,,,,,0,0,0,0,1,,,,,,,,,,,,,,,,,,,,,,,,,,,,,,,,,,
,,,,,5bb58e338f3bd70001e5df57,2026-02-02_21h00.20.478,causal,2025.1.1,MacIntel,59.88023952,,,,,,,,,,,,,,,,,,,,,,,,,,,,,,,,,,,,,,,,,,,,,,,,,,,,,,,,,,,,,,,,,,,,,,,,,,,,,,,,,,,,,,,,,11,0,11,0,1,,,,,,,,,,,,,,,,,,,,,,,,,,,,,
,,,,,5bb58e338f3bd70001e5df57,2026-02-02_21h00.20.478,causal,2025.1.1,MacIntel,59.88023952,,,,,,,,,,,,,,,,,,,,,,,,,,,,,,,,417.6968,419.0009,419.0009,419.0009,test,452.0199,453.0303,420.5055,422.6946,miss,stimuli/collisions/hit/stim2.mp4,space,1.7459,,TRUE,422.6957,422.6977,,0,[],[],red,green,blue,,,422.6983,424.4852,0,[],[],1,[424.4925],[424.4925],424.4854,427.0174,2.1641,220,TRUE,TRUE,427.0174,429.1986,"[""space""]",[0.15289999997611403],[null],453.0303,454.7296,k,1.3675,,9,"[1.18,0.82,1.11,0.93,1.01,0.9,0.9,0.91,1.37]",9,0,9,0,1,,,,,,,,,,,,,,,,,,,,,,,,,,,,,,,,,,
,,,,,5bb58e338f3bd70001e5df57,2026-02-02_21h00.20.478,causal,2025.1.1,MacIntel,59.88023952,,,,,,,,,,,,,,,,,,,,,,,,,,,,,,,,,,,,,,,,,,,,,,,,,,,,,,,,,,,,,,,,,,,,,,,,,,,,,,,,,,,,,,,,,12,0,12,0,1,,,,,,,,,,,,,,,,,,,,,,,,,,,,,
,,,,,5bb58e338f3bd70001e5df57,2026-02-02_21h00.20.478,causal,2025.1.1,MacIntel,59.88023952,,,,,,,,,,,,,,,,,,,,,,,,,,,,,,,,454.7298,455.7978,455.7978,455.7978,catch,463.7546,463.7546,457.3039,459.6247,miss,stimuli/collisions/miss/stim6.mp4,space,1.9167,,TRUE,459.6265,459.629,,0,[],[],red,green,blue,,,459.6304,460.7899,0,[],[],1,[460.7971000000239],[460.7971000000239],460.79,463.7541,2.0833,255,TRUE,FALSE,463.7541,463.7542,,,,463.7547,463.755,,,,,,0,0,0,0,1,,,,,,,,,,,,,,,,,,,,,,,,,,,,,,,,,,
,,,,,5bb58e338f3bd70001e5df57,2026-02-02_21h00.20.478,causal,2025.1.1,MacIntel,59.88023952,,,,,,,,,,,,,,,,,,,,,,,,,,,,,,,,,,,,,,,,,,,,,,,,,,,,,,,,,,,,,,,,,,,,,,,,,,,,,,,,,,,,,,,,,13,0,13,0,1,,,,,,,,,,,,,,,,,,,,,,,,,,,,,
,,,,,5bb58e338f3bd70001e5df57,2026-02-02_21h00.20.478,causal,2025.1.1,MacIntel,59.88023952,,,,,,,,,,,,,,,,,,,,,,,,,,,,,,,,463.7551,464.5811,464.5811,464.5811,catch,471.6867,471.689,466.0882,467.6762,miss,stimuli/collisions/miss/stim3.mp4,space,1.1492,,TRUE,467.6781,467.6811,,0,[],[],red,green,blue,,,467.6821,469.2521,0,[],[],1,[469.25930000001193],[469.25930000001193],469.2523,471.6829,2.8508,295,TRUE,FALSE,471.6829,471.683,,,,471.6891,471.6895,,,,,,0,0,0,0,1,,,,,,,,,,,,,,,,,,,,,,,,,,,,,,,,,,
,,,,,5bb58e338f3bd70001e5df57,2026-02-02_21h00.20.478,causal,2025.1.1,MacIntel,59.88023952,,,,,,,,,,,,,,,,,,,,,,,,,,,,,,,,,,,,,,,,,,,,,,,,,,,,,,,,,,,,,,,,,,,,,,,,,,,,,,,,,,,,,,,,,14,0,14,0,1,,,,,,,,,,,,,,,,,,,,,,,,,,,,,
,,,,,5bb58e338f3bd70001e5df57,2026-02-02_21h00.20.478,causal,2025.1.1,MacIntel,59.88023952,,,,,,,,,,,,,,,,,,,,,,,,,,,,,,,,471.6897,472.4347,472.4347,472.4347,test,503.231,504.2576,473.9424,476.3645,miss,stimuli/collisions/hit/stim10.mp4,space,2.0259,,TRUE,476.3663,476.3686,,0,[],[],red,green,blue,,,476.3694,477.6972,0,[],[],1,[477.7044000000358],[477.7044000000358],477.6973,480.171,2.2141,255,TRUE,TRUE,480.171,484.7613,"[""space""]",[2.5654000000357655],[null],504.2576,505.277,space,0.6869,,9,"[1.15,0.94,0.6,0.55,0.92,0.47,0.47,0.58,0.52,0.69]",9,0,9,0,1,,,,,,,,,,,,,,,,,,,,,,,,,,,,,,,,,,
,,,,,5bb58e338f3bd70001e5df57,2026-02-02_21h00.20.478,causal,2025.1.1,MacIntel,59.88023952,,,,,,,,,,,,,,,,,,,,,,,,,,,,,,,,,,,,,,,,,,,,,,,,,,,,,,,,,,,,,,,,,,,,,,,,,,,,,,,,,,,,,,,,,15,0,15,0,1,,,,,,,,,,,,,,,,,,,,,,,,,,,,,
,,,,,5bb58e338f3bd70001e5df57,2026-02-02_21h00.20.478,causal,2025.1.1,MacIntel,59.88023952,,,,,,,,,,,,,,,,,,,,,,,,,,,,,,,,505.2771,505.8891,505.8891,505.8891,test,543.49,544.4924,507.3982,511.2434,green,stimuli/collisions/hit/stim15.mp4,k,3.4491,,TRUE,511.2459,516.2625,99,1,[0.7007999999523236],[0.7007999999523236],red,green,blue,1,2,516.2637,517.1137,0,[],[],1,[517.120800000012],[517.120800000012],517.114,519.4723,1.1909,285,TRUE,TRUE,519.4723,522.2788,"[""space""]",[0.7939000000357055],[null],544.4925,546.1676,f,1.3144,,9,"[0.88,1.78,1.15,0.8,0.6,0.79,1.34,0.71,0.86,1.31]",9,0,9,0,1,,,,,,,,,,,,,,,,,,,,,,,,,,,,,,,,,,
,,,,,5bb58e338f3bd70001e5df57,2026-02-02_21h00.20.478,causal,2025.1.1,MacIntel,59.88023952,,,,,,,,,,,,,,,,,,,,,,,,,,,,,,,,,,,,,,,,,,,,,,,,,,,,,,,,,,,,,,,,,,,,,,,,,,,,,,,,,,,,,,,,,16,0,16,0,1,,,,,,,,,,,,,,,,,,,,,,,,,,,,,
,,,,,5bb58e338f3bd70001e5df57,2026-02-02_21h00.20.478,causal,2025.1.1,MacIntel,59.88023952,,,,,,,,,,,,,,,,,,,,,,,,,,,,,,,,546.1678,547.0755,547.0756,547.0756,test,584.961,585.9847,548.5818,554.0204,timeout,stimuli/collisions/hit/stim8.mp4,,,,TRUE,554.0227,554.031,,0,[],[],red,green,blue,,,554.032,554.0323,0,[],[],0,[],[],554.0324,556.7869,-2.0974,235,TRUE,TRUE,556.7869,563.5783,"[""space""]",[4.784399999976131],[null],585.9848,587.1936,f,0.8486,,9,"[1.26,0.99,0.93,1.15,1.1,0.88,1.07,0.79,0.94,0.85]",9,0,9,0,1,,,,,,,,,,,,,,,,,,,,,,,,,,,,,,,,,,
,,,,,5bb58e338f3bd70001e5df57,2026-02-02_21h00.20.478,causal,2025.1.1,MacIntel,59.88023952,,,,,,,,,,,,,,,,,,,,,,,,,,,,,,,,,,,,,,,,,,,,,,,,,,,,,,,,,,,,,,,,,,,,,,,,,,,,,,,,,,,,,,,,,17,0,17,0,1,,,,,,,,,,,,,,,,,,,,,,,,,,,,,
,,,,,5bb58e338f3bd70001e5df57,2026-02-02_21h00.20.478,causal,2025.1.1,MacIntel,59.88023952,,,,,,,,,,,,,,,,,,,,,,,,,,,,,,,,587.194,592.0624,592.0625,592.0626,catch,630.2667,631.2928,593.5678,595.6501,blue,stimuli/collisions/miss/stim4.mp4,f,1.6455,,TRUE,595.6515,602.2386,4,1,[1.4507999999523236],[1.4507999999523236],red,green,blue,99,6,602.2394,603.1514,0,[],[],1,[603.1585000000001],[603.1585000000001],603.1516,605.4859,2.3545,195,TRUE,TRUE,605.4859,608.633,"[""space""]",[1.1277999999523445],[null],631.2928,633.3232,k,1.6986,,9,"[1.78,0.79,0.91,1.01,0.91,1.26,0.85,0.77,1.07,1.7]",9,0,9,0,1,,,,,,,,,,,,,,,,,,,,,,,,,,,,,,,,,,
,,,,,5bb58e338f3bd70001e5df57,2026-02-02_21h00.20.478,causal,2025.1.1,MacIntel,59.88023952,,,,,,,,,,,,,,,,,,,,,,,,,,,,,,,,,,,,,,,,,,,,,,,,,,,,,,,,,,,,,,,,,,,,,,,,,,,,,,,,,,,,,,,,,18,0,18,0,1,,,,,,,,,,,,,,,,,,,,,,,,,,,,,
,,,,,5bb58e338f3bd70001e5df57,2026-02-02_21h00.20.478,causal,2025.1.1,MacIntel,59.88023952,,,,,,,,,,,,,,,,,,,,,,,,,,,,,,,,633.3236,634.1488,634.1488,634.1489,catch,712.8314,713.8553,635.6558,638.5345,green,stimuli/collisions/miss/stim5.mp4,k,2.4755,,TRUE,638.5368,644.0621,2,1,[0.9260000000000446],[0.9260000000000446],red,green,blue,1,2,644.0633,646.963,1,[646.9703000000119],[646.9703000000119],0,[],[],646.9632,649.3358,1.5245,190,FALSE,TRUE,649.3358,651.9684,"[""space""]",[0.6102999999523036],[null],713.8553,714.9264,space,0.7385,,24,"[1.07,1.07,1.97,1.04,0.74,0.8,0.93,0.77,0.74,1.01,0.77,1.29,1.26,0.79,1,0.8,0.82,0.74]",24,0,24,0,1,,,,,,,,,,,,,,,,,,,,,,,,,,,,,,,,,,
,,,,,5bb58e338f3bd70001e5df57,2026-02-02_21h00.20.478,causal,2025.1.1,MacIntel,59.88023952,,,,,,,,,,,,,,,,,,,,,,,,,,,,,,,,,,,,,,,,,,,,,,,,,,,,,,,,,,,,,,,,,,,,,,,,,,,,,,,,,,,,,,,,,19,0,19,0,1,,,,,,,,,,,,,,,,,,,,,,,,,,,,,
,,,,,5bb58e338f3bd70001e5df57,2026-02-02_21h00.20.478,causal,2025.1.1,MacIntel,59.88023952,,,,,,,,,,,,,,,,,,,,,,,,,,,,,,,,714.9268,715.6442,715.6443,715.6443,test,734.7274,734.7276,717.1534,720.5737,green,stimuli/collisions/hit/stim12.mp4,k,2.9836,,TRUE,720.5799,728.5914,100,1,[0.6419999999999391],[0.6419999999999391],red,green,blue,1,0,728.5923,732.3604,0,[],[],1,[732.3675000000001],[732.3675000000001],732.3605,734.7261,1.1264,220,TRUE,FALSE,734.7262,734.7264,,,,734.7277,734.7286,,,,,,0,0,0,0,1,,,,,,,,,,,,,,,,,,,,,,,,,,,,,,,,,,
,,,,,5bb58e338f3bd70001e5df57,2026-02-02_21h00.20.478,causal,2025.1.1,MacIntel,59.88023952,,,,,,,,,,,,,,,,,,,,,,,,,,,,,,,,,,,,,,,,,,,,,,,,,,,,,,,,,,,,,,,,,,,,,,,,,,,,,,,,,,,,,,,,,20,0,20,0,1,,,,,,,,,,,,,,,,,,,,,,,,,,,,,
,,,,,5bb58e338f3bd70001e5df57,2026-02-02_21h00.20.478,causal,2025.1.1,MacIntel,59.88023952,,,,,,,,,,,,,,,,,,,,,,,,,,,,,,,,734.729,735.4904,735.4906,735.4906,catch,744.3186,744.3187,736.9924,740.4649,miss,stimuli/collisions/miss/stim2.mp4,space,3.074,,TRUE,740.4677,740.472,,0,[],[],red,green,blue,,,740.4727,741.935,0,[],[],1,[741.9422000000477],[741.9422000000477],741.936,744.3179,0.926,245,TRUE,FALSE,744.3179,744.318,,,,744.3187,744.319,,,,,,0,0,0,0,1,,,,,,,,,,,,,,,,,,,,,,,,,,,,,,,,,,
,,,,,5bb58e338f3bd70001e5df57,2026-02-02_21h00.20.478,causal,2025.1.1,MacIntel,59.88023952,,,,,,,,,,,,,,,,,,,,,,,,,,,,,,,,,,,,,,,,,,,,,,,,,,,,,,,,,,,,,,,,,,,,,,,,,,,,,,,,,,,,,,,,,21,0,21,0,1,,,,,,,,,,,,,,,,,,,,,,,,,,,,,
,,,,,5bb58e338f3bd70001e5df57,2026-02-02_21h00.20.478,causal,2025.1.1,MacIntel,59.88023952,,,,,,,,,,,,,,,,,,,,,,,,,,,,,,,,744.3191,744.9847,744.9847,744.9847,test,758.7111,758.7113,746.4925,749.0807,blue,stimuli/collisions/hit/stim16.mp4,f,2.186,,TRUE,749.0829,755.4158,1,1,[1.8274000000358228],[1.8274000000358228],red,green,blue,100,1,755.4168,756.3465,0,[],[],1,[756.3536000000239],[756.3536000000239],756.3466,758.7105,0.624,270,TRUE,FALSE,758.7105,758.7105,,,,758.7113,758.7116,,,,,,0,0,0,0,1,,,,,,,,,,,,,,,,,,,,,,,,,,,,,,,,,,
,,,,,5bb58e338f3bd70001e5df57,2026-02-02_21h00.20.478,causal,2025.1.1,MacIntel,59.88023952,,,,,,,,,,,,,,,,,,,,,,,,,,,,,,,,,,,,,,,,,,,,,,,,,,,,,,,,,,,,,,,,,,,,,,,,,,,,,,,,,,,,,,,,,22,0,22,0,1,,,,,,,,,,,,,,,,,,,,,,,,,,,,,
,,,,,5bb58e338f3bd70001e5df57,2026-02-02_21h00.20.478,causal,2025.1.1,MacIntel,59.88023952,,,,,,,,,,,,,,,,,,,,,,,,,,,,,,,,758.7118,759.491,759.491,759.491,test,770.876,770.876,761.0001,762.669,green,stimuli/collisions/hit/stim3.mp4,k,1.2707,,TRUE,762.6702,767.7763,100,1,[0.7562000000476701],[0.7562000000476701],red,green,blue,0,1,767.7773,768.5164,0,[],[],1,[768.5236000000239],[768.5236000000239],768.5166,770.8755,2.0693,305,TRUE,FALSE,770.8755,770.8756,,,,770.876,770.8762,,,,,,0,0,0,0,1,,,,,,,,,,,,,,,,,,,,,,,,,,,,,,,,,,
,,,,,5bb58e338f3bd70001e5df57,2026-02-02_21h00.20.478,causal,2025.1.1,MacIntel,59.88023952,,,,,,,,,,,,,,,,,,,,,,,,,,,,,,,,,,,,,,,,,,,,,,,,,,,,,,,,,,,,,,,,,,,,,,,,,,,,,,,,,,,,,,,,,23,0,23,0,1,,,,,,,,,,,,,,,,,,,,,,,,,,,,,
,,,,,5bb58e338f3bd70001e5df57,2026-02-02_21h00.20.478,causal,2025.1.1,MacIntel,59.88023952,,,,,,,,,,,,,,,,,,,,,,,,,,,,,,,,770.8762,771.5939,771.5939,771.5939,test,875.506,876.5309,773.1053,776.5175,green,stimuli/collisions/hit/stim17.mp4,k,3.0159,,TRUE,776.519,781.3195,1,1,[0.5858000000118864],[0.5858000000118864],red,green,blue,1,100,781.3204,782.0917,0,[],[],1,[782.0989000000359],[782.0989000000359],782.0919,784.6214,1.2941,335,TRUE,TRUE,784.6216,787.4521,"[""space""]",[0.8251999999880582],[null],876.5309,878.178,k,1.2864,,39,"[1.1,1.26,0.73,0.55,0.55,0.69,0.55,0.69,0.71,1.37,0.58,0.47,0.66,0.58,0.58,1.45,0.69,0.57,0.9,0.66,0.66,1.08,0.58,1.12,0.82,1.29]",39,0,39,0,1,,,,,,,,,,,,,,,,,,,,,,,,,,,,,,,,,,
,,,,,5bb58e338f3bd70001e5df57,2026-02-02_21h00.20.478,causal,2025.1.1,MacIntel,59.88023952,,,,,,,,,,,,,,,,,,,,,,,,,,,,,,,,,,,,,,,,,,,,,,,,,,,,,,,,,,,,,,,,,,,,,,,,,,,,,,,,,,,,,,,,,24,0,24,0,1,,,,,,,,,,,,,,,,,,,,,,,,,,,,,
,,,,,5bb58e338f3bd70001e5df57,2026-02-02_21h00.20.478,causal,2025.1.1,MacIntel,59.88023952,,,,,,,,,,,,,,,,,,,,,,,,,,,,,,,,878.1784,879.0872,879.0873,879.0873,catch,887.5255,887.5255,880.6108,883.9066,miss,stimuli/collisions/miss/stim1.mp4,space,2.8979,,TRUE,883.9084,883.9114,,0,[],[],red,green,blue,,,883.9154,885.1582,0,[],[],1,[885.1654000000358],[885.1654000000358],885.1584,887.5249,1.1021,365,TRUE,FALSE,887.5249,887.525,,,,887.5255,887.5258,,,,,,0,0,0,0,1,,,,,,,,,,,,,,,,,,,,,,,,,,,,,,,,,,
,,,,,5bb58e338f3bd70001e5df57,2026-02-02_21h00.20.478,causal,2025.1.1,MacIntel,59.88023952,,,,,,,,,,,,,,,,,,,,,,,,,,,,,,,,,,,,,,,,,,,,,,,,,,,,,,,,,,,,,,,,,,,,,,,,,,,,,,,,,,,,,,,,,25,0,25,0,1,,,,,,,,,,,,,,,,,,,,,,,,,,,,,
,,,,,5bb58e338f3bd70001e5df57,2026-02-02_21h00.20.478,causal,2025.1.1,MacIntel,59.88023952,,,,,,,,,,,,,,,,,,,,,,,,,,,,,,,,887.5259,888.3775,888.3776,888.3776,test,902.9987,902.9988,889.8887,891.962,red,stimuli/collisions/hit/stim6.mp4,j,1.6747,,TRUE,891.9631,898.8733,1,1,[0.7278999999761027],[0.7278999999761027],red,green,blue,2,100,898.8741,899.9958,0,[],[],1,[900.003],[900.003],899.9959,902.998,1.5653,395,TRUE,FALSE,902.998,902.9981,,,,902.9988,902.9991,,,,,,0,0,0,0,1,,,,,,,,,,,,,,,,,,,,,,,,,,,,,,,,,,
,,,,,5bb58e338f3bd70001e5df57,2026-02-02_21h00.20.478,causal,2025.1.1,MacIntel,59.88023952,,,,,,,,,,,,,,,,,,,,,,,,,,,,,,,,,,,,,,,,,,,,,,,,,,,,,,,,,,,,,,,,,,,,,,,,,,,,,,,,,,,,,,,,,26,0,26,0,1,,,,,,,,,,,,,,,,,,,,,,,,,,,,,
,,,,,5bb58e338f3bd70001e5df57,2026-02-02_21h00.20.478,causal,2025.1.1,MacIntel,59.88023952,,,,,,,,,,,,,,,,,,,,,,,,,,,,,,,,,,,,,,,,,,,,,,,,,,,,,,,,,,,,,,,,,,,,,,,,,,,,,,,,,,,,,,,,,,,,,,902.9994,909.431,,,,,,,,,,,,,,,,,,,,,,,,,,,
,,,,,5bb58e338f3bd70001e5df57,2026-02-02_21h00.20.478,causal,2025.1.1,MacIntel,59.88023952,,,,,,,,,,,,,,,,,,,,,,,,,,,,,,,,,,,,,,,,,,,,,,,,,,,,,,,,,,,,,,,,,,,,,,,,,,,,,,,,,,,,,,,,,,,,,,,,909.4311,918.1103,,,,,,,,,,,,,,,,,,,,,,,,,
,,,,,5bb58e338f3bd70001e5df57,2026-02-02_21h00.20.478,causal,2025.1.1,MacIntel,59.88023952,,,,,,,,,,,,,,,,,,,,,,,,,,,,,,,,918.1117,919.1802,,,,919.1807,920.6886,,,,stimuli/collisions/calibration/stim8.mp4,,,,,,,,,,,,,,,,,,,,,,,,,,,,,,,,,,,,,,,,,,,,,,,,,,,,,,,,919.1805,919.1807,920.6891,924.2059,924.2064,925.5457,1,[925.546699999988],[925.546699999988],0,[],[],FALSE,FALSE,TRUE,925.5458,927.4723,"[""space""]",[0.9065999999642145],[null],0,0,0,0,1
,,,,,5bb58e338f3bd70001e5df57,2026-02-02_21h00.20.478,causal,2025.1.1,MacIntel,59.88023952,,,,,,,,,,,,,,,,,,,,,,,,,,,,,,,,927.4726,929.2825,,,,929.2827,930.7969,,,,stimuli/collisions/calibration/stim19.mp4,,,,,,,,,,,,,,,,,,,,,,,,,,,,,,,,,,,,,,,,,,,,,,,,,,,,,,,,929.2826,929.2826,930.7973,933.8401,933.8414,934.7904,0,[],[],1,[934.7914000000358],[934.7914000000358],TRUE,FALSE,FALSE,934.7905,936.5677,"[""space""]",[0.7523000000119282],[null],1,0,1,0,1
,,,,,5bb58e338f3bd70001e5df57,2026-02-02_21h00.20.478,causal,2025.1.1,MacIntel,59.88023952,,,,,,,,,,,,,,,,,,,,,,,,,,,,,,,,936.568,937.6328,,,,937.633,939.1402,,,,stimuli/collisions/calibration/stim12.mp4,,,,,,,,,,,,,,,,,,,,,,,,,,,,,,,,,,,,,,,,,,,,,,,,,,,,,,,,937.633,937.633,939.1404,941.9643,941.9655,943.1029,0,[],[],1,[943.1038000000119],[943.1038000000119],TRUE,FALSE,FALSE,943.1029,944.8636,"[""space""]",[0.75180000001194],[null],2,0,2,0,1
,,,,,5bb58e338f3bd70001e5df57,2026-02-02_21h00.20.478,causal,2025.1.1,MacIntel,59.88023952,,,,,,,,,,,,,,,,,,,,,,,,,,,,,,,,944.8639,945.9294,,,,945.9295,947.4362,,,,stimuli/collisions/calibration/stim9.mp4,,,,,,,,,,,,,,,,,,,,,,,,,,,,,,,,,,,,,,,,,,,,,,,,,,,,,,,,945.9294,945.9295,947.4365,950.5203,950.521,951.07,1,[951.0711000000238],[951.0711000000238],0,[],[],FALSE,FALSE,TRUE,951.0701,952.7932,"[""space""]",[0.6970999999641663],[null],3,0,3,0,1
,,,,,5bb58e338f3bd70001e5df57,2026-02-02_21h00.20.478,causal,2025.1.1,MacIntel,59.88023952,,,,,,,,,,,,,,,,,,,,,,,,,,,,,,,,952.7935,953.7773,,,,953.7775,955.286,,,,stimuli/collisions/calibration/stim18.mp4,,,,,,,,,,,,,,,,,,,,,,,,,,,,,,,,,,,,,,,,,,,,,,,,,,,,,,,,953.7775,953.7775,955.2862,958.6931,958.6943,959.2118,1,[959.213],[959.213],0,[],[],FALSE,FALSE,TRUE,959.2119,960.9103,"[""space""]",[0.6728000000118755],[null],4,0,4,0,1
,,,,,5bb58e338f3bd70001e5df57,2026-02-02_21h00.20.478,causal,2025.1.1,MacIntel,59.88023952,,,,,,,,,,,,,,,,,,,,,,,,,,,,,,,,960.9105,961.8749,,,,961.875,963.3978,,,,stimuli/collisions/calibration/stim14.mp4,,,,,,,,,,,,,,,,,,,,,,,,,,,,,,,,,,,,,,,,,,,,,,,,,,,,,,,,961.8749,961.875,963.3981,966.847,966.8482,967.8519,1,[967.8528999999761],[967.8528999999761],0,[],[],FALSE,FALSE,TRUE,967.8519,969.3329,"[""space""]",[0.4576999999881082],[null],5,0,5,0,1
,,,,,5bb58e338f3bd70001e5df57,2026-02-02_21h00.20.478,causal,2025.1.1,MacIntel,59.88023952,,,,,,,,,,,,,,,,,,,,,,,,,,,,,,,,969.3332,970.1593,,,,970.1595,971.67,,,,stimuli/collisions/calibration/stim5.mp4,,,,,,,,,,,,,,,,,,,,,,,,,,,,,,,,,,,,,,,,,,,,,,,,,,,,,,,,970.1595,970.1595,971.6702,975.8713,975.8733,976.366,1,[976.367],[976.367],0,[],[],FALSE,FALSE,TRUE,976.366,977.9318,"[""space""]",[0.539199999988],[null],6,0,6,0,1
,,,,,5bb58e338f3bd70001e5df57,2026-02-02_21h00.20.478,causal,2025.1.1,MacIntel,59.88023952,,,,,,,,,,,,,,,,,,,,,,,,,,,,,,,,977.9322,978.7841,,,,978.7844,980.2959,,,,stimuli/collisions/calibration/stim10.mp4,,,,,,,,,,,,,,,,,,,,,,,,,,,,,,,,,,,,,,,,,,,,,,,,,,,,,,,,978.7843,978.7843,980.2963,983.0603,983.0617,983.4703,0,[],[],1,[983.4711999999881],[983.471300000012],TRUE,TRUE,TRUE,983.4704,984.8481,"[""space""]",[0.37660000002381366],[null],7,0,7,0,1
,,,,,5bb58e338f3bd70001e5df57,2026-02-02_21h00.20.478,causal,2025.1.1,MacIntel,59.88023952,,,,,,,,,,,,,,,,,,,,,,,,,,,,,,,,984.8483,985.5664,,,,985.5665,987.0873,,,,stimuli/collisions/calibration/stim17.mp4,,,,,,,,,,,,,,,,,,,,,,,,,,,,,,,,,,,,,,,,,,,,,,,,,,,,,,,,985.5665,985.5665,987.0875,990.2833,990.2852,991.5384,0,[],[],1,[991.539300000012],[991.539300000012],TRUE,TRUE,TRUE,991.5384,992.9668,"[""space""]",[0.4040999999642736],[null],8,0,8,0,1
,,,,,5bb58e338f3bd70001e5df57,2026-02-02_21h00.20.478,causal,2025.1.1,MacIntel,59.88023952,,,,,,,,,,,,,,,,,,,,,,,,,,,,,,,,992.9671,993.66,,,,993.6602,995.1678,,,,stimuli/collisions/calibration/stim1.mp4,,,,,,,,,,,,,,,,,,,,,,,,,,,,,,,,,,,,,,,,,,,,,,,,,,,,,,,,993.6601,993.6602,995.168,998.4841,998.4849,998.8713,1,[998.8723999999762],[998.8723999999762],0,[],[],FALSE,FALSE,TRUE,998.8714,1000.2469,"[""space""]",[0.3493999999761854],[null],9,0,9,0,1
,,,,,5bb58e338f3bd70001e5df57,2026-02-02_21h00.20.478,causal,2025.1.1,MacIntel,59.88023952,,,,,,,,,,,,,,,,,,,,,,,,,,,,,,,,1000.2471,1000.8065,,,,1000.8066,1002.3152,,,,stimuli/collisions/calibration/stim4.mp4,,,,,,,,,,,,,,,,,,,,,,,,,,,,,,,,,,,,,,,,,,,,,,,,,,,,,,,,1000.8066,1000.8066,1002.3156,1005.0934,1005.0947,1005.4751,0,[],[],1,[1005.4761000000238],[1005.4761000000238],TRUE,TRUE,TRUE,1005.4751,1007.4186,"[""space""]",[0.9175999999642954],[null],10,0,10,0,1
,,,,,5bb58e338f3bd70001e5df57,2026-02-02_21h00.20.478,causal,2025.1.1,MacIntel,59.88023952,,,,,,,,,,,,,,,,,,,,,,,,,,,,,,,,1007.4187,1008.2166,,,,1008.2167,1009.7248,,,,stimuli/collisions/calibration/stim2.mp4,,,,,,,,,,,,,,,,,,,,,,,,,,,,,,,,,,,,,,,,,,,,,,,,,,,,,,,,1008.2167,1008.2167,1009.725,1013.4251,1013.4262,1013.864,1,[1013.8651000000236],[1013.8651000000236],0,[],[],FALSE,TRUE,FALSE,1013.864,1015.4667,"[""space""]",[0.5911000000237436],[null],11,0,11,0,1
,,,,,5bb58e338f3bd70001e5df57,2026-02-02_21h00.20.478,causal,2025.1.1,MacIntel,59.88023952,,,,,,,,,,,,,,,,,,,,,,,,,,,,,,,,1015.4669,1016.1065,,,,1016.1066,1017.6172,,,,stimuli/collisions/calibration/stim13.mp4,,,,,,,,,,,,,,,,,,,,,,,,,,,,,,,,,,,,,,,,,,,,,,,,,,,,,,,,1016.1065,1016.1065,1017.6175,1020.5378,1020.5393,1021.7857,1,[1021.7868000000117],[1021.7868000000117],0,[],[],FALSE,FALSE,TRUE,1021.7858,1023.1658,"[""space""]",[0.35659999996414626],[null],12,0,12,0,1
,,,,,5bb58e338f3bd70001e5df57,2026-02-02_21h00.20.478,causal,2025.1.1,MacIntel,59.88023952,,,,,,,,,,,,,,,,,,,,,,,,,,,,,,,,1023.166,1023.7014,,,,1023.7018,1025.2127,,,,stimuli/collisions/calibration/stim20.mp4,,,,,,,,,,,,,,,,,,,,,,,,,,,,,,,,,,,,,,,,,,,,,,,,,,,,,,,,1023.7017,1023.7018,1025.2131,1027.9596,1027.9611,1028.3164,0,[],[],1,[1028.317199999988],[1028.317199999988],TRUE,TRUE,TRUE,1028.3164,1029.6685,"[""space""]",[0.3492999999523363],[null],13,0,13,0,1
,,,,,5bb58e338f3bd70001e5df57,2026-02-02_21h00.20.478,causal,2025.1.1,MacIntel,59.88023952,,,,,,,,,,,,,,,,,,,,,,,,,,,,,,,,1029.6687,1030.3101,,,,1030.3102,1031.8202,,,,stimuli/collisions/calibration/stim6.mp4,,,,,,,,,,,,,,,,,,,,,,,,,,,,,,,,,,,,,,,,,,,,,,,,,,,,,,,,1030.3102,1030.3102,1031.8206,1034.4943,1034.4966,1034.8519,1,[1034.8529999999998],[1034.8529999999998],0,[],[],FALSE,FALSE,TRUE,1034.852,1036.201,"[""space""]",[0.3226999999878899],[null],14,0,14,0,1
,,,,,5bb58e338f3bd70001e5df57,2026-02-02_21h00.20.478,causal,2025.1.1,MacIntel,59.88023952,,,,,,,,,,,,,,,,,,,,,,,,,,,,,,,,1036.2015,1036.6095,,,,1036.6097,1038.1283,,,,stimuli/collisions/calibration/stim16.mp4,,,,,,,,,,,,,,,,,,,,,,,,,,,,,,,,,,,,,,,,,,,,,,,,,,,,,,,,1036.6096,1036.6096,1038.1286,1041.7468,1041.7478,1042.291,1,[1042.292199999988],[1042.292199999988],0,[],[],FALSE,FALSE,TRUE,1042.2911,1043.6665,"[""space""]",[0.35029999995231265],[null],15,0,15,0,1
,,,,,5bb58e338f3bd70001e5df57,2026-02-02_21h00.20.478,causal,2025.1.1,MacIntel,59.88023952,,,,,,,,,,,,,,,,,,,,,,,,,,,,,,,,1043.6666,1044.2277,,,,1044.2279,1045.7365,,,,stimuli/collisions/calibration/stim11.mp4,,,,,,,,,,,,,,,,,,,,,,,,,,,,,,,,,,,,,,,,,,,,,,,,,,,,,,,,1044.2278,1044.2279,1045.7367,1048.6359,1048.6369,1048.9921,0,[],[],1,[1048.9931000000236],[1048.9931000000236],TRUE,TRUE,TRUE,1048.9921,1050.3666,"[""space""]",[0.34909999996420993],[null],16,0,16,0,1
,,,,,5bb58e338f3bd70001e5df57,2026-02-02_21h00.20.478,causal,2025.1.1,MacIntel,59.88023952,,,,,,,,,,,,,,,,,,,,,,,,,,,,,,,,1050.3669,1050.7922,,,,1050.7923,1052.307,,,,stimuli/collisions/calibration/stim3.mp4,,,,,,,,,,,,,,,,,,,,,,,,,,,,,,,,,,,,,,,,,,,,,,,,,,,,,,,,1050.7923,1050.7923,1052.3074,1056.4256,1056.427,1057.0276,1,[1057.028699999988],[1057.028699999988],0,[],[],FALSE,FALSE,TRUE,1057.0276,1058.4517,"[""space""]",[0.40230000001201915],[null],17,0,17,0,1
,,,,,5bb58e338f3bd70001e5df57,2026-02-02_21h00.20.478,causal,2025.1.1,MacIntel,59.88023952,,,,,,,,,,,,,,,,,,,,,,,,,,,,,,,,1058.4518,1058.8999,,,,1058.9001,1060.41,,,,stimuli/collisions/calibration/stim7.mp4,,,,,,,,,,,,,,,,,,,,,,,,,,,,,,,,,,,,,,,,,,,,,,,,,,,,,,,,1058.9001,1058.9001,1060.4103,1063.0592,1063.0606,1063.446,0,[],[],1,[1063.4469000000356],[1063.4469000000356],TRUE,TRUE,TRUE,1063.446,1064.8237,"[""space""]",[0.35060000002386005],[null],18,0,18,0,1
,,,,,5bb58e338f3bd70001e5df57,2026-02-02_21h00.20.478,causal,2025.1.1,MacIntel,59.88023952,,,,,,,,,,,,,,,,,,,,,,,,,,,,,,,,1064.8243,1066.4052,,,,1066.4056,1067.9188,,,,stimuli/collisions/calibration/stim15.mp4,,,,,,,,,,,,,,,,,,,,,,,,,,,,,,,,,,,,,,,,,,,,,,,,,,,,,,,,1066.4055,1066.4055,1067.9193,1071.2362,1071.2381,1072.4117,1,[1072.412899999976],[1072.412899999976],0,[],[],FALSE,TRUE,FALSE,1072.4118,1073.7891,"[""space""]",[0.3510000000001128],[null],19,0,19,0,1
