intro.started,intro.stopped,button_6.numClicks,button_6.timesOn,button_6.timesOff,participant,date,expName,psychopyVersion,OS,frameRate,timing_info.started,timing_info.stopped,button_7.numClicks,button_7.timesOn,button_7.timesOff,hand_positions.started,hand_positions.stopped,space_bar.keys,space_bar.rt,space_bar.duration,train_keys.started,train_keys.stopped,key_resp.keys,key_resp.rt,key_resp.duration,score.started,score.stopped,training_rounds,training.thisRepN,training.thisTrialN,training.thisN,training.thisIndex,training.ran,test_instruct.started,test_instruct.stopped,instruct_cont.started,instruct_cont.stopped,point_instruct.started,point_instruct.stopped,accident_instruct.started,accident_instruct.stopped,advance.started,advance.stopped,flip_video.started,flip_video.stopped,trial_type,buffer.started,buffer.stopped,collision.started,collision.stopped,selection,stimuli_path,select_resp.keys,select_resp.rt,select_resp.duration,resp_trial,responsibility.started,responsibility.stopped,conf_2.response,button.numClicks,button.timesOn,button.timesOff,conf_one,conf_two,conf_three,conf_3.response,conf_1.response,forfeit.started,forfeit.stopped,forfeit_button.numClicks,forfeit_button.timesOn,forfeit_button.timesOff,keep_button.numClicks,keep_button.timesOn,keep_button.timesOff,accuracy.started,accuracy.stopped,rt_diff,acc_points,keep_round,practice_round,begin_review.started,begin_review.stopped,space_bar_6.keys,space_bar_6.rt,space_bar_6.duration,review_keys.started,review_keys.stopped,key_resp_2.keys,key_resp_2.rt,key_resp_2.duration,review_trials,baseline_rts,review.thisRepN,review.thisTrialN,review.thisN,review.thisIndex,review.ran,trials.thisRepN,trials.thisTrialN,trials.thisN,trials.thisIndex,trials.ran,transition.started,transition.stopped,calibrate_instruct.started,calibrate_instruct.stopped,flip_calibration.started,flip_calibration.stopped,calibrate.started,calibrate.stopped,prediction.started,prediction.stopped,miss.numClicks,miss.timesOn,miss.timesOff,hit.numClicks,hit.timesOn,hit.timesOff,calibration_pred,calibration_actual,calibration_score,cal_feedback.started,cal_feedback.stopped,space_bar_12.keys,space_bar_12.rt,space_bar_12.duration,calibration.thisRepN,calibration.thisTrialN,calibration.thisN,calibration.thisIndex,calibration.ran
0.0104,11.8117,1,[6.8097999999998144],[6.8097999999998144],5c1ebf5f658e9200017ae7e9,2026-02-02_11h24.41.067,causal,2025.1.1,Win32,74.62686567,,,,,,,,,,,,,,,,,,,,,,,,,,,,,,,,,,,,,,,,,,,,,,,,,,,,,,,,,,,,,,,,,,,,,,,,,,,,,,,,,,,,,,,,,,,,,,,,,,,,,,,,,,,,,,,,,,,,,,,,,,
,,,,,5c1ebf5f658e9200017ae7e9,2026-02-02_11h24.41.067,causal,2025.1.1,Win32,74.62686567,11.8132,20.1177,1,[3.3153000000007466],[3.3153000000007466],,,,,,,,,,,,,,,,,,,,,,,,,,,,,,,,,,,,,,,,,,,,,,,,,,,,,,,,,,,,,,,,,,,,,,,,,,,,,,,,,,,,,,,,,,,,,,,,,,,,,,,,,,,,,,,,,,,,,
,,,,,5c1ebf5f658e9200017ae7e9,2026-02-02_11h24.41.067,causal,2025.1.1,Win32,74.62686567,,,,,,20.1186,62.305,"[""space"",""space""]","[14.875900000000378,39.11540000000038]","[null,null]",,,,,,,,,,,,,,,,,,,,,,,,,,,,,,,,,,,,,,,,,,,,,,,,,,,,,,,,,,,,,,,,,,,,,,,,,,,,,,,,,,,,,,,,,,,,,,,,,,,,,,,,,,,,,,,,
,,,,,5c1ebf5f658e9200017ae7e9,2026-02-02_11h24.41.067,causal,2025.1.1,Win32,74.62686567,,,,,,,,,,,146.9404,148.5234,space,0.9113,,148.5243,152.617,1,0,0,0,0,1,,,,,,,,,,,,,,,,,,,,,,,,,,,,,,,,,,,,,,,,,,,,,,,,,,,,,,,,,,,,,,,,,,,,,,,,,,,,,,,,,,,,,,,,,,,,,,,,,,,
,,,,,5c1ebf5f658e9200017ae7e9,2026-02-02_11h24.41.067,causal,2025.1.1,Win32,74.62686567,,,,,,,,,,,,,,,,,,,,,,,,152.6194,158.1635,,,,,,,,,,,,,,,,,,,,,,,,,,,,,,,,,,,,,,,,,,,,,,,,,,,,,,,,,,,,,,,,,,,,,,,,,,,,,,,,,,,,,,,,,,,,,,,,,
,,,,,5c1ebf5f658e9200017ae7e9,2026-02-02_11h24.41.067,causal,2025.1.1,Win32,74.62686567,,,,,,,,,,,,,,,,,,,,,,,,,,158.1642,166.6329,,,,,,,,,,,,,,,,,,,,,,,,,,,,,,,,,,,,,,,,,,,,,,,,,,,,,,,,,,,,,,,,,,,,,,,,,,,,,,,,,,,,,,,,,,,,,,,
,,,,,5c1ebf5f658e9200017ae7e9,2026-02-02_11h24.41.067,causal,2025.1.1,Win32,74.62686567,,,,,,,,,,,,,,,,,,,,,,,,,,,,166.6335,197.3277,,,,,,,,,,,,,,,,,,,,,,,,,,,,,,,,,,,,,,,,,,,,,,,,,,,,,,,,,,,,,,,,,,,,,,,,,,,,,,,,,,,,,,,,,,,,,
,,,,,5c1ebf5f658e9200017ae7e9,2026-02-02_11h24.41.067,causal,2025.1.1,Win32,74.62686567,,,,,,,,,,,,,,,,,,,,,,,,,,,,,,197.3284,202.502,,,,,,,,,,,,,,,,,,,,,,,,,,,,,,,,,,,,,,,,,,,,,,,,,,,,,,,,,,,,,,,,,,,,,,,,,,,,,,,,,,,,,,,,,,,
,,,,,5c1ebf5f658e9200017ae7e9,2026-02-02_11h24.41.067,causal,2025.1.1,Win32,74.62686567,,,,,,,,,,,,,,,,,,,,,,,,,,,,,,,,202.5096,203.7481,203.7487,203.7491,train,260.6412,261.6443,205.2642,208.7855,red,stimuli/collisions/training/stim2.mp4,j,3.0666,,TRUE,208.792,226.3693,1,1,[1.1297000000001844],[1.1297999999998183],red,green,blue,1,36,226.3707,229.8345,1,[230.07220000000018],[230.07220000000018],0,[],[],229.8366,237.411,0.9334,-5,FALSE,TRUE,237.4116,241.4949,"[""space""]",[2.0419000000003393],[null],261.6445,262.942,space,0.6072,,9,"[1.68,0.73,0.76,0.63,0.58,0.51,0.5,0.55,0.51,0.61]",9,0,9,0,1,,,,,,,,,,,,,,,,,,,,,,,,,,,,,,,,,,
,,,,,5c1ebf5f658e9200017ae7e9,2026-02-02_11h24.41.067,causal,2025.1.1,Win32,74.62686567,,,,,,,,,,,,,,,,,,,,,,,,,,,,,,,,,,,,,,,,,,,,,,,,,,,,,,,,,,,,,,,,,,,,,,,,,,,,,,,,,,,,,,,,,0,0,0,0,1,,,,,,,,,,,,,,,,,,,,,,,,,,,,,
,,,,,5c1ebf5f658e9200017ae7e9,2026-02-02_11h24.41.067,causal,2025.1.1,Win32,74.62686567,,,,,,,,,,,,,,,,,,,,,,,,,,,,,,,,262.9438,263.8365,263.8366,263.8367,train,290.8468,290.8472,265.3496,268.9224,green,stimuli/collisions/training/stim1.mp4,k,3.1451,,TRUE,268.9298,279.8269,1,1,[0.8827000000001703],[0.8828000000007137],red,green,blue,0,99,279.8314,281.3781,1,[281.6168999999994],[281.6168999999994],0,[],[],281.3792,290.8432,0.9949,-10,FALSE,FALSE,290.8433,290.8437,,,,290.8474,290.8486,,,,,,0,0,0,0,1,,,,,,,,,,,,,,,,,,,,,,,,,,,,,,,,,,
,,,,,5c1ebf5f658e9200017ae7e9,2026-02-02_11h24.41.067,causal,2025.1.1,Win32,74.62686567,,,,,,,,,,,,,,,,,,,,,,,,,,,,,,,,,,,,,,,,,,,,,,,,,,,,,,,,,,,,,,,,,,,,,,,,,,,,,,,,,,,,,,,,,1,0,1,0,1,,,,,,,,,,,,,,,,,,,,,,,,,,,,,
,,,,,5c1ebf5f658e9200017ae7e9,2026-02-02_11h24.41.067,causal,2025.1.1,Win32,74.62686567,,,,,,,,,,,,,,,,,,,,,,,,,,,,,,,,290.8494,292.0824,292.0827,292.0827,train,314.4558,314.4562,293.5931,296.8974,green,stimuli/collisions/training/stim3.mp4,k,2.8949,,TRUE,296.9041,308.3338,99,1,[0.8820999999996388],[0.8820999999996388],red,green,blue,1,0,308.3384,309.6998,0,[],[],1,[309.9353999999994],[309.9353999999994],309.7006,314.4521,0.3751,15,TRUE,FALSE,314.4523,314.4526,,,,314.4563,314.4583,,,,,,0,0,0,0,1,,,,,,,,,,,,,,,,,,,,,,,,,,,,,,,,,,
,,,,,5c1ebf5f658e9200017ae7e9,2026-02-02_11h24.41.067,causal,2025.1.1,Win32,74.62686567,,,,,,,,,,,,,,,,,,,,,,,,,,,,,,,,,,,,,,,,,,,,,,,,,,,,,,,,,,,,,,,,,,,,,,,,,,,,,,,,,,,,,,,,,2,0,2,0,1,,,,,,,,,,,,,,,,,,,,,,,,,,,,,
,,,,,5c1ebf5f658e9200017ae7e9,2026-02-02_11h24.41.067,causal,2025.1.1,Win32,74.62686567,,,,,,,,,,,,,,,,,,,,,,,,,,,,,,,,314.459,316.5456,316.546,316.5461,test,338.2959,338.2964,318.0659,321.4991,red,stimuli/collisions/hit/stim6.mp4,j,3.0138,,TRUE,321.5058,328.9387,0,1,[0.7275000000000205],[0.7275000000000205],red,green,blue,0,100,328.9436,330.2274,0,[],[],1,[330.4628999999994],[330.46299999999997],330.2283,338.2889,0.2262,35,TRUE,FALSE,338.289,338.2894,,,,338.2965,338.2987,,,,,,0,0,0,0,1,,,,,,,,,,,,,,,,,,,,,,,,,,,,,,,,,,
,,,,,5c1ebf5f658e9200017ae7e9,2026-02-02_11h24.41.067,causal,2025.1.1,Win32,74.62686567,,,,,,,,,,,,,,,,,,,,,,,,,,,,,,,,,,,,,,,,,,,,,,,,,,,,,,,,,,,,,,,,,,,,,,,,,,,,,,,,,,,,,,,,,3,0,3,0,1,,,,,,,,,,,,,,,,,,,,,,,,,,,,,
,,,,,5c1ebf5f658e9200017ae7e9,2026-02-02_11h24.41.067,causal,2025.1.1,Win32,74.62686567,,,,,,,,,,,,,,,,,,,,,,,,,,,,,,,,338.2998,339.3289,339.3291,339.3292,catch,352.462,352.4624,340.8358,344.9074,miss,stimuli/collisions/miss/stim2.mp4,space,3.6524,,TRUE,344.915,344.9334,,0,[],[],red,green,blue,,,344.9373,347.122,0,[],[],1,[347.3581999999992],[347.35829999999976],347.1226,352.4591,0.3476,55,TRUE,FALSE,352.4593,352.4596,,,,352.4626,352.4643,,,,,,0,0,0,0,1,,,,,,,,,,,,,,,,,,,,,,,,,,,,,,,,,,
,,,,,5c1ebf5f658e9200017ae7e9,2026-02-02_11h24.41.067,causal,2025.1.1,Win32,74.62686567,,,,,,,,,,,,,,,,,,,,,,,,,,,,,,,,,,,,,,,,,,,,,,,,,,,,,,,,,,,,,,,,,,,,,,,,,,,,,,,,,,,,,,,,,4,0,4,0,1,,,,,,,,,,,,,,,,,,,,,,,,,,,,,
,,,,,5c1ebf5f658e9200017ae7e9,2026-02-02_11h24.41.067,causal,2025.1.1,Win32,74.62686567,,,,,,,,,,,,,,,,,,,,,,,,,,,,,,,,352.4655,354.3222,354.3224,354.3225,test,376.4685,376.4689,355.8359,359.861,green,stimuli/collisions/hit/stim12.mp4,k,3.6013,,TRUE,359.8671,372.0469,99,1,[0.846100000000547],[0.846100000000547],red,green,blue,10,31,372.0514,373.1987,0,[],[],1,[373.4343999999994],[373.4343999999994],373.1996,376.4644,0.5087,80,TRUE,FALSE,376.4646,376.465,,,,376.4693,376.471,,,,,,0,0,0,0,1,,,,,,,,,,,,,,,,,,,,,,,,,,,,,,,,,,
,,,,,5c1ebf5f658e9200017ae7e9,2026-02-02_11h24.41.067,causal,2025.1.1,Win32,74.62686567,,,,,,,,,,,,,,,,,,,,,,,,,,,,,,,,,,,,,,,,,,,,,,,,,,,,,,,,,,,,,,,,,,,,,,,,,,,,,,,,,,,,,,,,,5,0,5,0,1,,,,,,,,,,,,,,,,,,,,,,,,,,,,,
,,,,,5c1ebf5f658e9200017ae7e9,2026-02-02_11h24.41.067,causal,2025.1.1,Win32,74.62686567,,,,,,,,,,,,,,,,,,,,,,,,,,,,,,,,376.4718,377.9384,377.9386,377.9386,catch,415.559,416.5707,379.4439,382.3088,green,stimuli/collisions/miss/stim3.mp4,k,2.4402,,TRUE,382.3154,390.0679,1,1,[1.120900000000347],[1.120900000000347],red,green,blue,1,1,390.0736,391.4953,1,[391.7337999999998],[391.7337999999998],0,[],[],391.4963,393.6444,1.5598,75,FALSE,TRUE,393.6445,396.2325,"[""space""]",[0.5615999999996006],[null],416.5709,417.9391,space,0.6964,,9,"[1.09,0.66,0.63,0.58,0.61,0.63,0.69,0.68,0.68,0.7]",9,0,9,0,1,,,,,,,,,,,,,,,,,,,,,,,,,,,,,,,,,,
,,,,,5c1ebf5f658e9200017ae7e9,2026-02-02_11h24.41.067,causal,2025.1.1,Win32,74.62686567,,,,,,,,,,,,,,,,,,,,,,,,,,,,,,,,,,,,,,,,,,,,,,,,,,,,,,,,,,,,,,,,,,,,,,,,,,,,,,,,,,,,,,,,,6,0,6,0,1,,,,,,,,,,,,,,,,,,,,,,,,,,,,,
,,,,,5c1ebf5f658e9200017ae7e9,2026-02-02_11h24.41.067,causal,2025.1.1,Win32,74.62686567,,,,,,,,,,,,,,,,,,,,,,,,,,,,,,,,417.9403,418.7387,418.739,418.7391,test,438.7333,438.7336,420.2494,424.44,red,stimuli/collisions/hit/stim5.mp4,j,3.7731,,TRUE,424.4468,434.282,22,1,[0.7185000000000059],[0.7186000000005492],red,green,blue,0,100,434.2866,435.4735,0,[],[],1,[435.7088999999994],[435.7088999999994],435.4745,438.7299,0.1669,95,TRUE,FALSE,438.7301,438.7304,,,,438.7338,438.7358,,,,,,0,0,0,0,1,,,,,,,,,,,,,,,,,,,,,,,,,,,,,,,,,,
,,,,,5c1ebf5f658e9200017ae7e9,2026-02-02_11h24.41.067,causal,2025.1.1,Win32,74.62686567,,,,,,,,,,,,,,,,,,,,,,,,,,,,,,,,,,,,,,,,,,,,,,,,,,,,,,,,,,,,,,,,,,,,,,,,,,,,,,,,,,,,,,,,,7,0,7,0,1,,,,,,,,,,,,,,,,,,,,,,,,,,,,,
,,,,,5c1ebf5f658e9200017ae7e9,2026-02-02_11h24.41.067,causal,2025.1.1,Win32,74.62686567,,,,,,,,,,,,,,,,,,,,,,,,,,,,,,,,438.7365,440.5191,440.5194,440.5196,test,511.2202,512.2223,442.036,444.7382,blue,stimuli/collisions/hit/stim16.mp4,f,2.2585,,TRUE,444.7446,451.9715,1,1,[0.9950000000000045],[0.9950000000000045],red,green,blue,100,1,451.9766,452.9684,0,[],[],1,[453.2040999999996],[453.2040999999996],452.9692,455.1893,0.5515,120,TRUE,TRUE,455.1894,457.9509,"[""space""]",[0.7215000000000487],[null],512.2226,513.2187,f,0.6256,,24,"[0.74,0.62,0.73,0.71,0.63,0.7,0.53,0.56,0.69,0.71,0.62,1.01,0.58,0.6,0.65,0.5,0.64,0.63]",24,0,24,0,1,,,,,,,,,,,,,,,,,,,,,,,,,,,,,,,,,,
,,,,,5c1ebf5f658e9200017ae7e9,2026-02-02_11h24.41.067,causal,2025.1.1,Win32,74.62686567,,,,,,,,,,,,,,,,,,,,,,,,,,,,,,,,,,,,,,,,,,,,,,,,,,,,,,,,,,,,,,,,,,,,,,,,,,,,,,,,,,,,,,,,,8,0,8,0,1,,,,,,,,,,,,,,,,,,,,,,,,,,,,,
,,,,,5c1ebf5f658e9200017ae7e9,2026-02-02_11h24.41.067,causal,2025.1.1,Win32,74.62686567,,,,,,,,,,,,,,,,,,,,,,,,,,,,,,,,513.2198,514.0534,514.0537,514.0538,catch,524.9791,524.9796,515.5579,519.8338,miss,stimuli/collisions/miss/stim4.mp4,space,3.8681,,TRUE,519.8393,519.8576,,0,[],[],red,green,blue,,,519.8612,521.9375,0,[],[],1,[522.1738999999994],[522.1738999999994],521.9381,524.9761,0.1319,140,TRUE,FALSE,524.9762,524.9765,,,,524.9799,524.9821,,,,,,0,0,0,0,1,,,,,,,,,,,,,,,,,,,,,,,,,,,,,,,,,,
,,,,,5c1ebf5f658e9200017ae7e9,2026-02-02_11h24.41.067,causal,2025.1.1,Win32,74.62686567,,,,,,,,,,,,,,,,,,,,,,,,,,,,,,,,,,,,,,,,,,,,,,,,,,,,,,,,,,,,,,,,,,,,,,,,,,,,,,,,,,,,,,,,,9,0,9,0,1,,,,,,,,,,,,,,,,,,,,,,,,,,,,,
,,,,,5c1ebf5f658e9200017ae7e9,2026-02-02_11h24.41.067,causal,2025.1.1,Win32,74.62686567,,,,,,,,,,,,,,,,,,,,,,,,,,,,,,,,524.983,525.9888,525.989,525.989,catch,568.4123,569.4306,527.4958,533.0196,blue,stimuli/collisions/miss/stim1.mp4,f,5.1214,,TRUE,533.0258,539.2,46,1,[1.0165999999995847],[1.0165999999995847],red,green,blue,97,47,539.2046,540.3545,0,[],[],1,[540.5896999999993],[540.5897999999999],540.3554,545.2954,-1.1214,100,TRUE,TRUE,545.2955,548.3329,"[""space""]",[1.0012999999997874],[null],569.4308,570.4556,k,0.6569,,9,"[0.79,0.85,0.47,0.44,0.52,0.45,0.64,0.86,0.66]",9,0,9,0,1,,,,,,,,,,,,,,,,,,,,,,,,,,,,,,,,,,
,,,,,5c1ebf5f658e9200017ae7e9,2026-02-02_11h24.41.067,causal,2025.1.1,Win32,74.62686567,,,,,,,,,,,,,,,,,,,,,,,,,,,,,,,,,,,,,,,,,,,,,,,,,,,,,,,,,,,,,,,,,,,,,,,,,,,,,,,,,,,,,,,,,10,0,10,0,1,,,,,,,,,,,,,,,,,,,,,,,,,,,,,
,,,,,5c1ebf5f658e9200017ae7e9,2026-02-02_11h24.41.067,causal,2025.1.1,Win32,74.62686567,,,,,,,,,,,,,,,,,,,,,,,,,,,,,,,,570.4565,571.4918,571.4919,571.4921,test,588.9553,588.9558,572.9962,576.7488,green,stimuli/collisions/hit/stim3.mp4,k,3.3549,,TRUE,576.7559,583.9334,100,1,[0.8652999999998201],[0.8652999999998201],red,green,blue,0,5,583.9374,584.8866,0,[],[],1,[585.1221999999992],[585.1222999999999],584.8876,588.9523,-0.0149,120,TRUE,FALSE,588.9523,588.9527,,,,588.9561,588.9582,,,,,,0,0,0,0,1,,,,,,,,,,,,,,,,,,,,,,,,,,,,,,,,,,
,,,,,5c1ebf5f658e9200017ae7e9,2026-02-02_11h24.41.067,causal,2025.1.1,Win32,74.62686567,,,,,,,,,,,,,,,,,,,,,,,,,,,,,,,,,,,,,,,,,,,,,,,,,,,,,,,,,,,,,,,,,,,,,,,,,,,,,,,,,,,,,,,,,11,0,11,0,1,,,,,,,,,,,,,,,,,,,,,,,,,,,,,
,,,,,5c1ebf5f658e9200017ae7e9,2026-02-02_11h24.41.067,causal,2025.1.1,Win32,74.62686567,,,,,,,,,,,,,,,,,,,,,,,,,,,,,,,,588.9592,590.2352,590.2354,590.2355,test,605.7853,605.7858,591.749,595.8838,green,stimuli/collisions/hit/stim10.mp4,k,3.7069,,TRUE,595.8893,601.2607,99,1,[0.6570000000000391],[0.6570000000000391],red,green,blue,2,72,601.2654,602.2783,0,[],[],1,[602.5138999999995],[602.5138999999995],602.2792,605.7824,0.5331,145,TRUE,FALSE,605.7826,605.7828,,,,605.786,605.7881,,,,,,0,0,0,0,1,,,,,,,,,,,,,,,,,,,,,,,,,,,,,,,,,,
,,,,,5c1ebf5f658e9200017ae7e9,2026-02-02_11h24.41.067,causal,2025.1.1,Win32,74.62686567,,,,,,,,,,,,,,,,,,,,,,,,,,,,,,,,,,,,,,,,,,,,,,,,,,,,,,,,,,,,,,,,,,,,,,,,,,,,,,,,,,,,,,,,,12,0,12,0,1,,,,,,,,,,,,,,,,,,,,,,,,,,,,,
,,,,,5c1ebf5f658e9200017ae7e9,2026-02-02_11h24.41.067,causal,2025.1.1,Win32,74.62686567,,,,,,,,,,,,,,,,,,,,,,,,,,,,,,,,605.7888,607.3029,607.303,607.303,test,622.952,622.9525,608.8131,612.2509,blue,stimuli/collisions/hit/stim11.mp4,f,3.0082,,TRUE,612.2575,618.7041,17,1,[0.6376000000005888],[0.6376000000005888],red,green,blue,1,99,618.7089,619.9254,1,[620.1642999999999],[620.1642999999999],0,[],[],619.9261,622.9491,0.5618,140,FALSE,FALSE,622.9492,622.9494,,,,622.9526,622.9541,,,,,,0,0,0,0,1,,,,,,,,,,,,,,,,,,,,,,,,,,,,,,,,,,
,,,,,5c1ebf5f658e9200017ae7e9,2026-02-02_11h24.41.067,causal,2025.1.1,Win32,74.62686567,,,,,,,,,,,,,,,,,,,,,,,,,,,,,,,,,,,,,,,,,,,,,,,,,,,,,,,,,,,,,,,,,,,,,,,,,,,,,,,,,,,,,,,,,13,0,13,0,1,,,,,,,,,,,,,,,,,,,,,,,,,,,,,
,,,,,5c1ebf5f658e9200017ae7e9,2026-02-02_11h24.41.067,causal,2025.1.1,Win32,74.62686567,,,,,,,,,,,,,,,,,,,,,,,,,,,,,,,,622.9548,624.5938,624.5939,624.5939,test,640.7076,640.708,626.0962,629.7254,green,stimuli/collisions/hit/stim7.mp4,k,3.1986,,TRUE,629.7319,636.2537,99,1,[1.592999999999961],[1.592999999999961],red,green,blue,42,44,636.2584,637.6025,0,[],[],1,[637.8380999999996],[637.8380999999996],637.6034,640.7048,0.0714,160,TRUE,FALSE,640.705,640.7054,,,,640.7081,640.7099,,,,,,0,0,0,0,1,,,,,,,,,,,,,,,,,,,,,,,,,,,,,,,,,,
,,,,,5c1ebf5f658e9200017ae7e9,2026-02-02_11h24.41.067,causal,2025.1.1,Win32,74.62686567,,,,,,,,,,,,,,,,,,,,,,,,,,,,,,,,,,,,,,,,,,,,,,,,,,,,,,,,,,,,,,,,,,,,,,,,,,,,,,,,,,,,,,,,,14,0,14,0,1,,,,,,,,,,,,,,,,,,,,,,,,,,,,,
,,,,,5c1ebf5f658e9200017ae7e9,2026-02-02_11h24.41.067,causal,2025.1.1,Win32,74.62686567,,,,,,,,,,,,,,,,,,,,,,,,,,,,,,,,640.7106,648.3864,648.3866,648.3867,catch,661.8342,661.8346,649.8937,653.2252,miss,stimuli/collisions/miss/stim6.mp4,space,2.9256,,TRUE,653.231,653.2487,,0,[],[],red,green,blue,,,653.2531,654.6509,0,[],[],1,[654.8870999999997],[654.8870999999997],654.6522,661.8311,1.0744,190,TRUE,FALSE,661.8312,661.8314,,,,661.8349,661.8371,,,,,,0,0,0,0,1,,,,,,,,,,,,,,,,,,,,,,,,,,,,,,,,,,
,,,,,5c1ebf5f658e9200017ae7e9,2026-02-02_11h24.41.067,causal,2025.1.1,Win32,74.62686567,,,,,,,,,,,,,,,,,,,,,,,,,,,,,,,,,,,,,,,,,,,,,,,,,,,,,,,,,,,,,,,,,,,,,,,,,,,,,,,,,,,,,,,,,15,0,15,0,1,,,,,,,,,,,,,,,,,,,,,,,,,,,,,
,,,,,5c1ebf5f658e9200017ae7e9,2026-02-02_11h24.41.067,causal,2025.1.1,Win32,74.62686567,,,,,,,,,,,,,,,,,,,,,,,,,,,,,,,,661.8378,662.8189,662.819,662.8191,test,704.3127,705.3164,664.3382,666.7941,blue,stimuli/collisions/hit/stim18.mp4,f,2.059,,TRUE,666.8007,674.6842,20,1,[0.8184999999999718],[0.8184999999999718],red,green,blue,97,36,674.6888,676.4383,0,[],[],1,[676.6737999999998],[676.6737999999998],676.439,679.8788,1.081,220,TRUE,TRUE,679.8788,682.5744,"[""space""]",[0.6689000000003489],[null],705.3167,706.2883,k,0.6052,,9,"[1.46,0.68,0.67,0.67,0.61,0.44,1.36,0.61,0.61]",9,0,9,0,1,,,,,,,,,,,,,,,,,,,,,,,,,,,,,,,,,,
,,,,,5c1ebf5f658e9200017ae7e9,2026-02-02_11h24.41.067,causal,2025.1.1,Win32,74.62686567,,,,,,,,,,,,,,,,,,,,,,,,,,,,,,,,,,,,,,,,,,,,,,,,,,,,,,,,,,,,,,,,,,,,,,,,,,,,,,,,,,,,,,,,,16,0,16,0,1,,,,,,,,,,,,,,,,,,,,,,,,,,,,,
,,,,,5c1ebf5f658e9200017ae7e9,2026-02-02_11h24.41.067,causal,2025.1.1,Win32,74.62686567,,,,,,,,,,,,,,,,,,,,,,,,,,,,,,,,706.2894,707.22,707.2202,707.2203,test,722.3787,722.3792,708.7321,711.5503,red,stimuli/collisions/hit/stim1.mp4,j,2.3995,,TRUE,711.5572,718.0509,3,1,[0.9395999999995865],[0.9395999999995865],red,green,blue,4,99,718.0556,719.1124,0,[],[],1,[719.3480999999997],[719.3480999999997],719.1132,722.3753,0.9705,245,TRUE,FALSE,722.3754,722.3757,,,,722.3794,722.3815,,,,,,0,0,0,0,1,,,,,,,,,,,,,,,,,,,,,,,,,,,,,,,,,,
,,,,,5c1ebf5f658e9200017ae7e9,2026-02-02_11h24.41.067,causal,2025.1.1,Win32,74.62686567,,,,,,,,,,,,,,,,,,,,,,,,,,,,,,,,,,,,,,,,,,,,,,,,,,,,,,,,,,,,,,,,,,,,,,,,,,,,,,,,,,,,,,,,,17,0,17,0,1,,,,,,,,,,,,,,,,,,,,,,,,,,,,,
,,,,,5c1ebf5f658e9200017ae7e9,2026-02-02_11h24.41.067,causal,2025.1.1,Win32,74.62686567,,,,,,,,,,,,,,,,,,,,,,,,,,,,,,,,722.3822,724.3808,724.381,724.381,test,737.8013,737.8017,725.8862,728.9117,blue,stimuli/collisions/hit/stim8.mp4,f,2.6226,,TRUE,728.9179,734.6971,0,1,[1.3045999999997093],[1.3045999999997093],red,green,blue,99,65,734.7015,735.6204,0,[],[],1,[735.856],[735.856],735.6212,737.7982,0.7174,270,TRUE,FALSE,737.7984,737.7987,,,,737.8018,737.8035,,,,,,0,0,0,0,1,,,,,,,,,,,,,,,,,,,,,,,,,,,,,,,,,,
,,,,,5c1ebf5f658e9200017ae7e9,2026-02-02_11h24.41.067,causal,2025.1.1,Win32,74.62686567,,,,,,,,,,,,,,,,,,,,,,,,,,,,,,,,,,,,,,,,,,,,,,,,,,,,,,,,,,,,,,,,,,,,,,,,,,,,,,,,,,,,,,,,,18,0,18,0,1,,,,,,,,,,,,,,,,,,,,,,,,,,,,,
,,,,,5c1ebf5f658e9200017ae7e9,2026-02-02_11h24.41.067,causal,2025.1.1,Win32,74.62686567,,,,,,,,,,,,,,,,,,,,,,,,,,,,,,,,737.8042,738.8483,738.8484,738.8486,test,754.8273,754.8278,740.3682,743.6963,blue,stimuli/collisions/hit/stim13.mp4,f,2.9241,,TRUE,743.7023,750.541,75,1,[2.8994000000003552],[2.8994000000003552],red,green,blue,99,0,750.5462,751.4513,0,[],[],1,[751.6861999999993],[751.6861999999993],751.4522,754.8242,0.8459,295,TRUE,FALSE,754.8242,754.8245,,,,754.8281,754.8303,,,,,,0,0,0,0,1,,,,,,,,,,,,,,,,,,,,,,,,,,,,,,,,,,
,,,,,5c1ebf5f658e9200017ae7e9,2026-02-02_11h24.41.067,causal,2025.1.1,Win32,74.62686567,,,,,,,,,,,,,,,,,,,,,,,,,,,,,,,,,,,,,,,,,,,,,,,,,,,,,,,,,,,,,,,,,,,,,,,,,,,,,,,,,,,,,,,,,19,0,19,0,1,,,,,,,,,,,,,,,,,,,,,,,,,,,,,
,,,,,5c1ebf5f658e9200017ae7e9,2026-02-02_11h24.41.067,causal,2025.1.1,Win32,74.62686567,,,,,,,,,,,,,,,,,,,,,,,,,,,,,,,,754.831,756.4847,756.4849,756.485,test,775.8798,775.8804,757.9886,760.7693,red,stimuli/collisions/hit/stim14.mp4,j,2.3755,,TRUE,760.7756,768.7781,70,1,[0.7614000000003216],[0.7614000000003216],red,green,blue,0,100,768.7828,769.8279,0,[],[],1,[770.063],[770.063],769.8287,775.8768,0.5645,320,TRUE,FALSE,775.8769,775.8772,,,,775.8806,775.8823,,,,,,0,0,0,0,1,,,,,,,,,,,,,,,,,,,,,,,,,,,,,,,,,,
,,,,,5c1ebf5f658e9200017ae7e9,2026-02-02_11h24.41.067,causal,2025.1.1,Win32,74.62686567,,,,,,,,,,,,,,,,,,,,,,,,,,,,,,,,,,,,,,,,,,,,,,,,,,,,,,,,,,,,,,,,,,,,,,,,,,,,,,,,,,,,,,,,,20,0,20,0,1,,,,,,,,,,,,,,,,,,,,,,,,,,,,,
,,,,,5c1ebf5f658e9200017ae7e9,2026-02-02_11h24.41.067,causal,2025.1.1,Win32,74.62686567,,,,,,,,,,,,,,,,,,,,,,,,,,,,,,,,775.883,778.6562,778.6565,778.6568,test,794.3938,794.3943,780.1844,783.206,blue,stimuli/collisions/hit/stim4.mp4,f,2.6245,,TRUE,783.2127,790.2164,16,1,[1.7492999999998347],[1.7492999999998347],red,green,blue,100,74,790.2212,791.4416,0,[],[],1,[791.6772999999998],[791.6772999999998],791.4425,794.3907,1.3855,350,TRUE,FALSE,794.3909,794.3913,,,,794.3945,794.3962,,,,,,0,0,0,0,1,,,,,,,,,,,,,,,,,,,,,,,,,,,,,,,,,,
,,,,,5c1ebf5f658e9200017ae7e9,2026-02-02_11h24.41.067,causal,2025.1.1,Win32,74.62686567,,,,,,,,,,,,,,,,,,,,,,,,,,,,,,,,,,,,,,,,,,,,,,,,,,,,,,,,,,,,,,,,,,,,,,,,,,,,,,,,,,,,,,,,,21,0,21,0,1,,,,,,,,,,,,,,,,,,,,,,,,,,,,,
,,,,,5c1ebf5f658e9200017ae7e9,2026-02-02_11h24.41.067,causal,2025.1.1,Win32,74.62686567,,,,,,,,,,,,,,,,,,,,,,,,,,,,,,,,794.397,795.3798,795.3799,795.38,catch,833.1184,834.1244,796.8859,800.0521,green,stimuli/collisions/miss/stim5.mp4,k,2.7499,,TRUE,800.0584,807.0666,0,1,[0.5529999999999973],[0.5529999999999973],red,green,blue,0,0,807.0712,808.1329,1,[808.3717000000003],[808.3717000000003],0,[],[],808.1335,810.656,1.2501,345,FALSE,TRUE,810.6562,813.9459,"[""space""]",[1.253700000000208],[null],834.1246,835.1394,j,0.6016,,9,"[0.85,0.63,0.69,0.44,0.59,0.63,0.63,0.66,0.64,0.6]",9,0,9,0,1,,,,,,,,,,,,,,,,,,,,,,,,,,,,,,,,,,
,,,,,5c1ebf5f658e9200017ae7e9,2026-02-02_11h24.41.067,causal,2025.1.1,Win32,74.62686567,,,,,,,,,,,,,,,,,,,,,,,,,,,,,,,,,,,,,,,,,,,,,,,,,,,,,,,,,,,,,,,,,,,,,,,,,,,,,,,,,,,,,,,,,22,0,22,0,1,,,,,,,,,,,,,,,,,,,,,,,,,,,,,
,,,,,5c1ebf5f658e9200017ae7e9,2026-02-02_11h24.41.067,causal,2025.1.1,Win32,74.62686567,,,,,,,,,,,,,,,,,,,,,,,,,,,,,,,,835.1402,836.1666,836.1667,836.1668,test,852.245,852.2455,837.6871,841.4691,green,stimuli/collisions/hit/stim15.mp4,k,3.3447,,TRUE,841.4754,848.0287,99,1,[0.8999000000004571],[0.8999000000004571],red,green,blue,0,52,848.0331,848.8352,0,[],[],1,[849.0708999999995],[849.0708999999995],848.8366,852.2419,1.2953,375,TRUE,FALSE,852.2421,852.2424,,,,852.2457,852.2473,,,,,,0,0,0,0,1,,,,,,,,,,,,,,,,,,,,,,,,,,,,,,,,,,
,,,,,5c1ebf5f658e9200017ae7e9,2026-02-02_11h24.41.067,causal,2025.1.1,Win32,74.62686567,,,,,,,,,,,,,,,,,,,,,,,,,,,,,,,,,,,,,,,,,,,,,,,,,,,,,,,,,,,,,,,,,,,,,,,,,,,,,,,,,,,,,,,,,23,0,23,0,1,,,,,,,,,,,,,,,,,,,,,,,,,,,,,
,,,,,5c1ebf5f658e9200017ae7e9,2026-02-02_11h24.41.067,causal,2025.1.1,Win32,74.62686567,,,,,,,,,,,,,,,,,,,,,,,,,,,,,,,,852.2481,853.4651,853.4652,853.4654,test,898.4261,899.4438,854.978,857.6346,blue,stimuli/collisions/hit/stim9.mp4,f,2.245,,TRUE,857.6412,869.93,1,1,[3.204599999999573],[3.204599999999573],red,green,blue,66,96,869.9348,871.0612,1,[871.3000999999997],[871.3000999999997],0,[],[],871.0622,873.2173,0.725,370,FALSE,TRUE,873.2175,875.913,"[""space""]",[0.6677999999998292],[null],899.444,900.5398,space,0.7258,,9,"[0.64,1.49,0.74,0.59,0.61,0.4,0.56,0.64,0.73]",9,0,9,0,1,,,,,,,,,,,,,,,,,,,,,,,,,,,,,,,,,,
,,,,,5c1ebf5f658e9200017ae7e9,2026-02-02_11h24.41.067,causal,2025.1.1,Win32,74.62686567,,,,,,,,,,,,,,,,,,,,,,,,,,,,,,,,,,,,,,,,,,,,,,,,,,,,,,,,,,,,,,,,,,,,,,,,,,,,,,,,,,,,,,,,,24,0,24,0,1,,,,,,,,,,,,,,,,,,,,,,,,,,,,,
,,,,,5c1ebf5f658e9200017ae7e9,2026-02-02_11h24.41.067,causal,2025.1.1,Win32,74.62686567,,,,,,,,,,,,,,,,,,,,,,,,,,,,,,,,900.5408,901.7288,901.7291,901.7292,test,917.109,917.1096,903.2332,906.6353,blue,stimuli/collisions/hit/stim2.mp4,f,2.9842,,TRUE,906.6418,913.1936,10,1,[0.9202999999997701],[0.9202999999997701],red,green,blue,100,59,913.198,914.1435,0,[],[],1,[914.3790999999997],[914.3790999999997],914.1445,917.1061,0.9258,395,TRUE,FALSE,917.1062,917.1066,,,,917.1097,917.1121,,,,,,0,0,0,0,1,,,,,,,,,,,,,,,,,,,,,,,,,,,,,,,,,,
,,,,,5c1ebf5f658e9200017ae7e9,2026-02-02_11h24.41.067,causal,2025.1.1,Win32,74.62686567,,,,,,,,,,,,,,,,,,,,,,,,,,,,,,,,,,,,,,,,,,,,,,,,,,,,,,,,,,,,,,,,,,,,,,,,,,,,,,,,,,,,,,,,,25,0,25,0,1,,,,,,,,,,,,,,,,,,,,,,,,,,,,,
,,,,,5c1ebf5f658e9200017ae7e9,2026-02-02_11h24.41.067,causal,2025.1.1,Win32,74.62686567,,,,,,,,,,,,,,,,,,,,,,,,,,,,,,,,917.1127,918.7471,918.7474,918.7475,test,935.4236,935.4242,920.2665,924.6555,red,stimuli/collisions/hit/stim17.mp4,j,3.9739,,TRUE,924.6622,930.1347,74,1,[0.9677000000002636],[0.9677000000002636],red,green,blue,23,98,930.1392,931.1705,0,[],[],1,[931.4060999999997],[931.4060999999997],931.1712,935.4203,0.3361,415,TRUE,FALSE,935.4204,935.4208,,,,935.4244,935.4258,,,,,,0,0,0,0,1,,,,,,,,,,,,,,,,,,,,,,,,,,,,,,,,,,
,,,,,5c1ebf5f658e9200017ae7e9,2026-02-02_11h24.41.067,causal,2025.1.1,Win32,74.62686567,,,,,,,,,,,,,,,,,,,,,,,,,,,,,,,,,,,,,,,,,,,,,,,,,,,,,,,,,,,,,,,,,,,,,,,,,,,,,,,,,,,,,,,,,26,0,26,0,1,,,,,,,,,,,,,,,,,,,,,,,,,,,,,
,,,,,5c1ebf5f658e9200017ae7e9,2026-02-02_11h24.41.067,causal,2025.1.1,Win32,74.62686567,,,,,,,,,,,,,,,,,,,,,,,,,,,,,,,,,,,,,,,,,,,,,,,,,,,,,,,,,,,,,,,,,,,,,,,,,,,,,,,,,,,,,,,,,,,,,,935.4266,940.3295,,,,,,,,,,,,,,,,,,,,,,,,,,,
,,,,,5c1ebf5f658e9200017ae7e9,2026-02-02_11h24.41.067,causal,2025.1.1,Win32,74.62686567,,,,,,,,,,,,,,,,,,,,,,,,,,,,,,,,,,,,,,,,,,,,,,,,,,,,,,,,,,,,,,,,,,,,,,,,,,,,,,,,,,,,,,,,,,,,,,,,940.3301,950.6858,,,,,,,,,,,,,,,,,,,,,,,,,
,,,,,5c1ebf5f658e9200017ae7e9,2026-02-02_11h24.41.067,causal,2025.1.1,Win32,74.62686567,,,,,,,,,,,,,,,,,,,,,,,,,,,,,,,,950.6908,952.093,,,,952.0958,953.6138,,,,stimuli/collisions/calibration/stim16.mp4,,,,,,,,,,,,,,,,,,,,,,,,,,,,,,,,,,,,,,,,,,,,,,,,,,,,,,,,952.0947,952.0956,953.6156,957.2504,957.2531,958.9796,0,[],[],1,[958.9973999999995],[958.9975000000001],TRUE,FALSE,FALSE,958.9803,961.4837,"[""space""]",[1.4675999999996066],[null],0,0,0,0,1
,,,,,5c1ebf5f658e9200017ae7e9,2026-02-02_11h24.41.067,causal,2025.1.1,Win32,74.62686567,,,,,,,,,,,,,,,,,,,,,,,,,,,,,,,,961.4849,964.2843,,,,964.2852,965.7969,,,,stimuli/collisions/calibration/stim17.mp4,,,,,,,,,,,,,,,,,,,,,,,,,,,,,,,,,,,,,,,,,,,,,,,,,,,,,,,,964.2847,964.285,965.7981,968.9971,969.0045,970.6254,0,[],[],1,[970.6436999999993],[970.6436999999993],TRUE,TRUE,TRUE,970.6256,981.9479,"[""space""]",[10.285400000000436],[null],1,0,1,0,1
,,,,,5c1ebf5f658e9200017ae7e9,2026-02-02_11h24.41.067,causal,2025.1.1,Win32,74.62686567,,,,,,,,,,,,,,,,,,,,,,,,,,,,,,,,981.949,984.1066,,,,984.1074,985.6291,,,,stimuli/collisions/calibration/stim9.mp4,,,,,,,,,,,,,,,,,,,,,,,,,,,,,,,,,,,,,,,,,,,,,,,,,,,,,,,,984.1071,984.1073,985.6302,988.7381,988.7464,989.6062,1,[989.632],[989.632],0,[],[],FALSE,FALSE,TRUE,989.6064,991.2425,"[""space""]",[0.6019999999999754],[null],2,0,2,0,1
,,,,,5c1ebf5f658e9200017ae7e9,2026-02-02_11h24.41.067,causal,2025.1.1,Win32,74.62686567,,,,,,,,,,,,,,,,,,,,,,,,,,,,,,,,991.2437,993.7168,,,,993.7177,995.2418,,,,stimuli/collisions/calibration/stim3.mp4,,,,,,,,,,,,,,,,,,,,,,,,,,,,,,,,,,,,,,,,,,,,,,,,,,,,,,,,993.7174,993.7177,995.2428,999.3773,999.3848,1000.2102,1,[1000.2357999999998],[1000.2357999999998],0,[],[],FALSE,FALSE,TRUE,1000.2103,1001.8762,"[""space""]",[0.6318999999996322],[null],3,0,3,0,1
,,,,,5c1ebf5f658e9200017ae7e9,2026-02-02_11h24.41.067,causal,2025.1.1,Win32,74.62686567,,,,,,,,,,,,,,,,,,,,,,,,,,,,,,,,1001.8769,1002.5699,,,,1002.5707,1004.0854,,,,stimuli/collisions/calibration/stim6.mp4,,,,,,,,,,,,,,,,,,,,,,,,,,,,,,,,,,,,,,,,,,,,,,,,,,,,,,,,1002.5704,1002.5706,1004.0864,1006.767,1006.7755,1007.3697,0,[],[],1,[1007.3880000000001],[1007.3880000000001],TRUE,FALSE,FALSE,1007.3699,1009.1704,"[""space""]",[0.762000000000171],[null],4,0,4,0,1
,,,,,5c1ebf5f658e9200017ae7e9,2026-02-02_11h24.41.067,causal,2025.1.1,Win32,74.62686567,,,,,,,,,,,,,,,,,,,,,,,,,,,,,,,,1009.1715,1009.6488,,,,1009.6498,1011.1555,,,,stimuli/collisions/calibration/stim14.mp4,,,,,,,,,,,,,,,,,,,,,,,,,,,,,,,,,,,,,,,,,,,,,,,,,,,,,,,,1009.6493,1009.6495,1011.157,1014.6272,1014.634,1015.2787,0,[],[],1,[1015.2968999999996],[1015.2968999999996],TRUE,FALSE,FALSE,1015.2789,1017.226,"[""space""]",[0.9091000000007625],[null],5,0,5,0,1
,,,,,5c1ebf5f658e9200017ae7e9,2026-02-02_11h24.41.067,causal,2025.1.1,Win32,74.62686567,,,,,,,,,,,,,,,,,,,,,,,,,,,,,,,,1017.2272,1017.8387,,,,1017.8396,1019.3429,,,,stimuli/collisions/calibration/stim4.mp4,,,,,,,,,,,,,,,,,,,,,,,,,,,,,,,,,,,,,,,,,,,,,,,,,,,,,,,,1017.8391,1017.8394,1019.344,1022.1067,1022.1156,1022.743,0,[],[],1,[1022.7612999999999],[1022.7612999999999],TRUE,TRUE,TRUE,1022.7433,1024.4434,"[""space""]",[0.6755000000000564],[null],6,0,6,0,1
,,,,,5c1ebf5f658e9200017ae7e9,2026-02-02_11h24.41.067,causal,2025.1.1,Win32,74.62686567,,,,,,,,,,,,,,,,,,,,,,,,,,,,,,,,1024.4445,1025.496,,,,1025.4969,1027.0014,,,,stimuli/collisions/calibration/stim8.mp4,,,,,,,,,,,,,,,,,,,,,,,,,,,,,,,,,,,,,,,,,,,,,,,,,,,,,,,,1025.4966,1025.4968,1027.0029,1030.5231,1030.5317,1031.5838,1,[1031.6096000000007],[1031.6096000000007],0,[],[],FALSE,FALSE,TRUE,1031.584,1033.1721,"[""space""]",[0.5642000000002554],[null],7,0,7,0,1
,,,,,5c1ebf5f658e9200017ae7e9,2026-02-02_11h24.41.067,causal,2025.1.1,Win32,74.62686567,,,,,,,,,,,,,,,,,,,,,,,,,,,,,,,,1033.1734,1033.7518,,,,1033.7531,1035.2651,,,,stimuli/collisions/calibration/stim5.mp4,,,,,,,,,,,,,,,,,,,,,,,,,,,,,,,,,,,,,,,,,,,,,,,,,,,,,,,,1033.7526,1033.753,1035.2666,1039.4531,1039.4605,1040.2281,1,[1040.2539000000004],[1040.2539000000004],0,[],[],FALSE,FALSE,TRUE,1040.2282,1041.7587,"[""space""]",[0.5116000000004988],[null],8,0,8,0,1
,,,,,5c1ebf5f658e9200017ae7e9,2026-02-02_11h24.41.067,causal,2025.1.1,Win32,74.62686567,,,,,,,,,,,,,,,,,,,,,,,,,,,,,,,,1041.7597,1042.2899,,,,1042.291,1043.7944,,,,stimuli/collisions/calibration/stim7.mp4,,,,,,,,,,,,,,,,,,,,,,,,,,,,,,,,,,,,,,,,,,,,,,,,,,,,,,,,1042.2906,1042.291,1043.7954,1046.465,1046.4744,1046.9373,0,[],[],1,[1046.9555],[1046.9555],TRUE,TRUE,TRUE,1046.9374,1048.5053,"[""space""]",[0.5499000000004344],[null],9,0,9,0,1
,,,,,5c1ebf5f658e9200017ae7e9,2026-02-02_11h24.41.067,causal,2025.1.1,Win32,74.62686567,,,,,,,,,,,,,,,,,,,,,,,,,,,,,,,,1048.5065,1049.3472,,,,1049.3481,1050.8643,,,,stimuli/collisions/calibration/stim1.mp4,,,,,,,,,,,,,,,,,,,,,,,,,,,,,,,,,,,,,,,,,,,,,,,,,,,,,,,,1049.3478,1049.348,1050.8656,1054.1872,1054.1958,1055.049,1,[1055.0747999999999],[1055.0747999999999],0,[],[],FALSE,FALSE,TRUE,1055.0491,1056.9342,"[""space""]",[0.8687000000002172],[null],10,0,10,0,1
,,,,,5c1ebf5f658e9200017ae7e9,2026-02-02_11h24.41.067,causal,2025.1.1,Win32,74.62686567,,,,,,,,,,,,,,,,,,,,,,,,,,,,,,,,1056.935,1057.5749,,,,1057.5759,1059.0834,,,,stimuli/collisions/calibration/stim19.mp4,,,,,,,,,,,,,,,,,,,,,,,,,,,,,,,,,,,,,,,,,,,,,,,,,,,,,,,,1057.5756,1057.5758,1059.0844,1062.135,1062.1445,1063.2832,0,[],[],1,[1063.3015],[1063.3015],TRUE,FALSE,FALSE,1063.2833,1064.4185,"[""space""]",[0.0956000000005588],[null],11,0,11,0,1
,,,,,5c1ebf5f658e9200017ae7e9,2026-02-02_11h24.41.067,causal,2025.1.1,Win32,74.62686567,,,,,,,,,,,,,,,,,,,,,,,,,,,,,,,,1064.4196,1065.2039,,,,1065.2048,1066.7237,,,,stimuli/collisions/calibration/stim15.mp4,,,,,,,,,,,,,,,,,,,,,,,,,,,,,,,,,,,,,,,,,,,,,,,,,,,,,,,,1065.2045,1065.2048,1066.7248,1070.047,1070.0556,1070.6083,0,[],[],1,[1070.6243],[1070.6243],TRUE,TRUE,TRUE,1070.6085,1072.3676,"[""space""]",[0.7357999999999265],[null],12,0,12,0,1
,,,,,5c1ebf5f658e9200017ae7e9,2026-02-02_11h24.41.067,causal,2025.1.1,Win32,74.62686567,,,,,,,,,,,,,,,,,,,,,,,,,,,,,,,,1072.3686,1072.9008,,,,1072.9017,1074.4064,,,,stimuli/collisions/calibration/stim11.mp4,,,,,,,,,,,,,,,,,,,,,,,,,,,,,,,,,,,,,,,,,,,,,,,,,,,,,,,,1072.9014,1072.9016,1074.4075,1077.2976,1077.3078,1077.9246,1,[1077.9504000000004],[1077.9505000000001],0,[],[],FALSE,TRUE,FALSE,1077.9248,1079.7455,"[""space""]",[0.7896000000005188],[null],13,0,13,0,1
,,,,,5c1ebf5f658e9200017ae7e9,2026-02-02_11h24.41.067,causal,2025.1.1,Win32,74.62686567,,,,,,,,,,,,,,,,,,,,,,,,,,,,,,,,1079.7467,1080.4517,,,,1080.4525,1081.9617,,,,stimuli/collisions/calibration/stim18.mp4,,,,,,,,,,,,,,,,,,,,,,,,,,,,,,,,,,,,,,,,,,,,,,,,,,,,,,,,1080.4523,1080.4524,1081.9626,1085.3586,1085.3667,1085.9659,1,[1085.9917000000003],[1085.9917000000003],0,[],[],FALSE,FALSE,TRUE,1085.9661,1087.6139,"[""space""]",[0.6285999999997784],[null],14,0,14,0,1
,,,,,5c1ebf5f658e9200017ae7e9,2026-02-02_11h24.41.067,causal,2025.1.1,Win32,74.62686567,,,,,,,,,,,,,,,,,,,,,,,,,,,,,,,,1087.615,1088.6138,,,,1088.6149,1090.1196,,,,stimuli/collisions/calibration/stim2.mp4,,,,,,,,,,,,,,,,,,,,,,,,,,,,,,,,,,,,,,,,,,,,,,,,,,,,,,,,1088.6144,1088.6147,1090.1205,1093.8197,1093.8271,1094.4958,1,[1094.5215],[1094.5215],0,[],[],FALSE,TRUE,FALSE,1094.496,1097.7782,"[""space""]",[2.242999999999938],[null],15,0,15,0,1
,,,,,5c1ebf5f658e9200017ae7e9,2026-02-02_11h24.41.067,causal,2025.1.1,Win32,74.62686567,,,,,,,,,,,,,,,,,,,,,,,,,,,,,,,,1097.7795,1098.351,,,,1098.3522,1099.8569,,,,stimuli/collisions/calibration/stim10.mp4,,,,,,,,,,,,,,,,,,,,,,,,,,,,,,,,,,,,,,,,,,,,,,,,,,,,,,,,1098.3518,1098.3521,1099.8581,1102.6262,1102.6345,1103.5112,1,[1103.5369000000005],[1103.537],0,[],[],FALSE,TRUE,FALSE,1103.5113,1104.8601,"[""space""]",[0.3353999999994812],[null],16,0,16,0,1
,,,,,5c1ebf5f658e9200017ae7e9,2026-02-02_11h24.41.067,causal,2025.1.1,Win32,74.62686567,,,,,,,,,,,,,,,,,,,,,,,,,,,,,,,,1104.8609,1105.4079,,,,1105.4088,1106.9265,,,,stimuli/collisions/calibration/stim20.mp4,,,,,,,,,,,,,,,,,,,,,,,,,,,,,,,,,,,,,,,,,,,,,,,,,,,,,,,,1105.4085,1105.4086,1106.9275,1109.6876,1109.6969,1110.241,0,[],[],1,[1110.2590999999998],[1110.2590999999998],TRUE,TRUE,TRUE,1110.2412,1111.838,"[""space""]",[0.5623999999995704],[null],17,0,17,0,1
,,,,,5c1ebf5f658e9200017ae7e9,2026-02-02_11h24.41.067,causal,2025.1.1,Win32,74.62686567,,,,,,,,,,,,,,,,,,,,,,,,,,,,,,,,1111.8392,1112.4102,,,,1112.4113,1113.9159,,,,stimuli/collisions/calibration/stim12.mp4,,,,,,,,,,,,,,,,,,,,,,,,,,,,,,,,,,,,,,,,,,,,,,,,,,,,,,,,1112.4108,1112.4112,1113.9169,1116.7382,1116.7461,1117.283,0,[],[],1,[1117.3011999999994],[1117.3011999999994],TRUE,FALSE,FALSE,1117.2832,1118.8031,"[""space""]",[0.4822999999996682],[null],18,0,18,0,1
,,,,,5c1ebf5f658e9200017ae7e9,2026-02-02_11h24.41.067,causal,2025.1.1,Win32,74.62686567,,,,,,,,,,,,,,,,,,,,,,,,,,,,,,,,1118.8042,1119.3215,,,,1119.3225,1120.8276,,,,stimuli/collisions/calibration/stim13.mp4,,,,,,,,,,,,,,,,,,,,,,,,,,,,,,,,,,,,,,,,,,,,,,,,,,,,,,,,1119.3221,1119.3224,1120.8287,1123.7589,1123.7669,1124.429,1,[1124.4549000000004],[1124.4549000000004],0,[],[],FALSE,FALSE,TRUE,1124.4291,1126.2044,"[""space""]",[0.7362000000000535],[null],19,0,19,0,1
