intro.started,intro.stopped,button_6.numClicks,button_6.timesOn,button_6.timesOff,participant,date,expName,psychopyVersion,OS,frameRate,timing_info.started,timing_info.stopped,button_7.numClicks,button_7.timesOn,button_7.timesOff,hand_positions.started,hand_positions.stopped,space_bar.keys,space_bar.rt,space_bar.duration,train_keys.started,train_keys.stopped,key_resp.keys,key_resp.rt,key_resp.duration,score.started,score.stopped,training_rounds,training.thisRepN,training.thisTrialN,training.thisN,training.thisIndex,training.ran,test_instruct.started,test_instruct.stopped,instruct_cont.started,instruct_cont.stopped,point_instruct.started,point_instruct.stopped,accident_instruct.started,accident_instruct.stopped,advance.started,advance.stopped,flip_video.started,flip_video.stopped,trial_type,buffer.started,buffer.stopped,collision.started,collision.stopped,selection,stimuli_path,select_resp.keys,select_resp.rt,select_resp.duration,resp_trial,responsibility.started,responsibility.stopped,conf_2.response,button.numClicks,button.timesOn,button.timesOff,conf_one,conf_two,conf_three,conf_3.response,conf_1.response,forfeit.started,forfeit.stopped,forfeit_button.numClicks,forfeit_button.timesOn,forfeit_button.timesOff,keep_button.numClicks,keep_button.timesOn,keep_button.timesOff,accuracy.started,accuracy.stopped,rt_diff,acc_points,keep_round,practice_round,begin_review.started,begin_review.stopped,space_bar_6.keys,space_bar_6.rt,space_bar_6.duration,review_keys.started,review_keys.stopped,key_resp_2.keys,key_resp_2.rt,key_resp_2.duration,review_trials,baseline_rts,review.thisRepN,review.thisTrialN,review.thisN,review.thisIndex,review.ran,trials.thisRepN,trials.thisTrialN,trials.thisN,trials.thisIndex,trials.ran,transition.started,transition.stopped,calibrate_instruct.started,calibrate_instruct.stopped,flip_calibration.started,flip_calibration.stopped,calibrate.started,calibrate.stopped,prediction.started,prediction.stopped,miss.numClicks,miss.timesOn,miss.timesOff,hit.numClicks,hit.timesOn,hit.timesOff,calibration_pred,calibration_actual,calibration_score,cal_feedback.started,cal_feedback.stopped,space_bar_12.keys,space_bar_12.rt,space_bar_12.duration,calibration.thisRepN,calibration.thisTrialN,calibration.thisN,calibration.thisIndex,calibration.ran
0.0004,6.5184,1,[1.5338000000715262],[1.5338000000715262],5dceeba4144b510411fb4566,2026-02-02_12h45.47.379,causal,2025.1.1,Win32,60.60606061,,,,,,,,,,,,,,,,,,,,,,,,,,,,,,,,,,,,,,,,,,,,,,,,,,,,,,,,,,,,,,,,,,,,,,,,,,,,,,,,,,,,,,,,,,,,,,,,,,,,,,,,,,,,,,,,,,,,,,,,,,
,,,,,5dceeba4144b510411fb4566,2026-02-02_12h45.47.379,causal,2025.1.1,Win32,60.60606061,6.5186,13.0348,1,[1.516699999928477],[1.516699999928477],,,,,,,,,,,,,,,,,,,,,,,,,,,,,,,,,,,,,,,,,,,,,,,,,,,,,,,,,,,,,,,,,,,,,,,,,,,,,,,,,,,,,,,,,,,,,,,,,,,,,,,,,,,,,,,,,,,,,
,,,,,5dceeba4144b510411fb4566,2026-02-02_12h45.47.379,causal,2025.1.1,Win32,60.60606061,,,,,,13.0352,27.1018,"[""space"",""space""]","[2.8674000000953725,10.989900000095368]","[null,null]",,,,,,,,,,,,,,,,,,,,,,,,,,,,,,,,,,,,,,,,,,,,,,,,,,,,,,,,,,,,,,,,,,,,,,,,,,,,,,,,,,,,,,,,,,,,,,,,,,,,,,,,,,,,,,,,
,,,,,5dceeba4144b510411fb4566,2026-02-02_12h45.47.379,causal,2025.1.1,Win32,60.60606061,,,,,,,,,,,78.2664,79.1422,space,0.5042,,79.1428,82.9073,1,0,0,0,0,1,,,,,,,,,,,,,,,,,,,,,,,,,,,,,,,,,,,,,,,,,,,,,,,,,,,,,,,,,,,,,,,,,,,,,,,,,,,,,,,,,,,,,,,,,,,,,,,,,,,
,,,,,5dceeba4144b510411fb4566,2026-02-02_12h45.47.379,causal,2025.1.1,Win32,60.60606061,,,,,,,,,,,,,,,,,,,,,,,,82.9078,89.4824,,,,,,,,,,,,,,,,,,,,,,,,,,,,,,,,,,,,,,,,,,,,,,,,,,,,,,,,,,,,,,,,,,,,,,,,,,,,,,,,,,,,,,,,,,,,,,,,,
,,,,,5dceeba4144b510411fb4566,2026-02-02_12h45.47.379,causal,2025.1.1,Win32,60.60606061,,,,,,,,,,,,,,,,,,,,,,,,,,89.4825,97.3487,,,,,,,,,,,,,,,,,,,,,,,,,,,,,,,,,,,,,,,,,,,,,,,,,,,,,,,,,,,,,,,,,,,,,,,,,,,,,,,,,,,,,,,,,,,,,,,
,,,,,5dceeba4144b510411fb4566,2026-02-02_12h45.47.379,causal,2025.1.1,Win32,60.60606061,,,,,,,,,,,,,,,,,,,,,,,,,,,,97.3489,118.3655,,,,,,,,,,,,,,,,,,,,,,,,,,,,,,,,,,,,,,,,,,,,,,,,,,,,,,,,,,,,,,,,,,,,,,,,,,,,,,,,,,,,,,,,,,,,,
,,,,,5dceeba4144b510411fb4566,2026-02-02_12h45.47.379,causal,2025.1.1,Win32,60.60606061,,,,,,,,,,,,,,,,,,,,,,,,,,,,,,118.3656,122.582,,,,,,,,,,,,,,,,,,,,,,,,,,,,,,,,,,,,,,,,,,,,,,,,,,,,,,,,,,,,,,,,,,,,,,,,,,,,,,,,,,,,,,,,,,,
,,,,,5dceeba4144b510411fb4566,2026-02-02_12h45.47.379,causal,2025.1.1,Win32,60.60606061,,,,,,,,,,,,,,,,,,,,,,,,,,,,,,,,122.584,125.0485,125.0487,125.0489,train,161.7819,162.7977,126.5659,128.948,miss,stimuli/collisions/training/stim2.mp4,space,2.0102,,TRUE,128.9559,128.979,,0,[],[],red,green,blue,,,128.9792,134.4644,0,[],[],1,[134.51260000002384],[134.51260000002384],134.4646,138.0979,1.9898,35,TRUE,TRUE,138.098,142.1983,"[""space""]",[2.073299999952326],[null],162.7978,163.8476,k,0.6956,,9,"[1.23,0.65,0.67,0.52,0.5,0.67,0.68,0.62,0.7]",9,0,9,0,1,,,,,,,,,,,,,,,,,,,,,,,,,,,,,,,,,,
,,,,,5dceeba4144b510411fb4566,2026-02-02_12h45.47.379,causal,2025.1.1,Win32,60.60606061,,,,,,,,,,,,,,,,,,,,,,,,,,,,,,,,,,,,,,,,,,,,,,,,,,,,,,,,,,,,,,,,,,,,,,,,,,,,,,,,,,,,,,,,,0,0,0,0,1,,,,,,,,,,,,,,,,,,,,,,,,,,,,,
,,,,,5dceeba4144b510411fb4566,2026-02-02_12h45.47.379,causal,2025.1.1,Win32,60.60606061,,,,,,,,,,,,,,,,,,,,,,,,,,,,,,,,163.8482,164.6972,164.6972,164.6972,train,195.7967,195.7967,166.2141,168.5025,green,stimuli/collisions/training/stim3.mp4,k,1.9446,,TRUE,168.503,190.2131,100,1,[2.2663999999761586],[2.2663999999761586],red,green,blue,0,0,190.214,192.6966,0,[],[],1,[192.74460000002384],[192.74460000002384],192.6969,195.7961,1.3254,65,TRUE,FALSE,195.7962,195.7962,,,,195.7967,195.7972,,,,,,0,0,0,0,1,,,,,,,,,,,,,,,,,,,,,,,,,,,,,,,,,,
,,,,,5dceeba4144b510411fb4566,2026-02-02_12h45.47.379,causal,2025.1.1,Win32,60.60606061,,,,,,,,,,,,,,,,,,,,,,,,,,,,,,,,,,,,,,,,,,,,,,,,,,,,,,,,,,,,,,,,,,,,,,,,,,,,,,,,,,,,,,,,,1,0,1,0,1,,,,,,,,,,,,,,,,,,,,,,,,,,,,,
,,,,,5dceeba4144b510411fb4566,2026-02-02_12h45.47.379,causal,2025.1.1,Win32,60.60606061,,,,,,,,,,,,,,,,,,,,,,,,,,,,,,,,195.7976,197.5627,197.5627,197.5627,train,221.6632,221.6633,199.0634,202.346,red,stimuli/collisions/training/stim1.mp4,j,2.9349,,TRUE,202.3493,214.9463,0,1,[2.0503000000715303],[2.0503000000715303],red,green,blue,0,100,214.9474,218.2374,0,[],[],1,[218.2855],[218.2855],218.2377,221.6623,1.2051,95,TRUE,FALSE,221.6623,221.6624,,,,221.6634,221.6641,,,,,,0,0,0,0,1,,,,,,,,,,,,,,,,,,,,,,,,,,,,,,,,,,
,,,,,5dceeba4144b510411fb4566,2026-02-02_12h45.47.379,causal,2025.1.1,Win32,60.60606061,,,,,,,,,,,,,,,,,,,,,,,,,,,,,,,,,,,,,,,,,,,,,,,,,,,,,,,,,,,,,,,,,,,,,,,,,,,,,,,,,,,,,,,,,2,0,2,0,1,,,,,,,,,,,,,,,,,,,,,,,,,,,,,
,,,,,5dceeba4144b510411fb4566,2026-02-02_12h45.47.379,causal,2025.1.1,Win32,60.60606061,,,,,,,,,,,,,,,,,,,,,,,,,,,,,,,,221.6644,225.6957,225.6957,225.6958,test,243.0291,243.0292,227.2127,230.0524,red,stimuli/collisions/hit/stim11.mp4,j,2.4811,,TRUE,230.0547,238.4785,0,1,[1.9501000000238378],[1.9501000000238378],red,green,blue,0,100,238.48,240.0613,0,[],[],1,[240.10950000000003],[240.10950000000003],240.0614,243.0281,1.0889,125,TRUE,FALSE,243.0281,243.0282,,,,243.0293,243.0298,,,,,,0,0,0,0,1,,,,,,,,,,,,,,,,,,,,,,,,,,,,,,,,,,
,,,,,5dceeba4144b510411fb4566,2026-02-02_12h45.47.379,causal,2025.1.1,Win32,60.60606061,,,,,,,,,,,,,,,,,,,,,,,,,,,,,,,,,,,,,,,,,,,,,,,,,,,,,,,,,,,,,,,,,,,,,,,,,,,,,,,,,,,,,,,,,3,0,3,0,1,,,,,,,,,,,,,,,,,,,,,,,,,,,,,
,,,,,5dceeba4144b510411fb4566,2026-02-02_12h45.47.379,causal,2025.1.1,Win32,60.60606061,,,,,,,,,,,,,,,,,,,,,,,,,,,,,,,,243.03,244.6948,244.6949,244.6949,test,263.0951,263.0953,246.2118,249.7947,green,stimuli/collisions/hit/stim15.mp4,k,3.2231,,TRUE,249.7963,258.528,100,1,[1.1499999999999773],[1.1499999999999773],red,green,blue,0,0,258.5292,259.9612,0,[],[],1,[260.0093999999762],[260.0093999999762],259.9614,263.0943,1.4169,155,TRUE,FALSE,263.0943,263.0945,,,,263.0954,263.0957,,,,,,0,0,0,0,1,,,,,,,,,,,,,,,,,,,,,,,,,,,,,,,,,,
,,,,,5dceeba4144b510411fb4566,2026-02-02_12h45.47.379,causal,2025.1.1,Win32,60.60606061,,,,,,,,,,,,,,,,,,,,,,,,,,,,,,,,,,,,,,,,,,,,,,,,,,,,,,,,,,,,,,,,,,,,,,,,,,,,,,,,,,,,,,,,,4,0,4,0,1,,,,,,,,,,,,,,,,,,,,,,,,,,,,,
,,,,,5dceeba4144b510411fb4566,2026-02-02_12h45.47.379,causal,2025.1.1,Win32,60.60606061,,,,,,,,,,,,,,,,,,,,,,,,,,,,,,,,263.096,264.3277,264.3278,264.3278,test,286.295,286.2963,265.8446,269.9442,green,stimuli/collisions/hit/stim10.mp4,j,4.0146,,TRUE,269.9463,280.6691,100,1,[0.9168000000715324],[0.9168000000715324],red,green,blue,0,0,280.6699,282.5023,0,[],[],1,[282.55050000000006],[282.55050000000006],282.5026,286.2937,0.4932,180,TRUE,FALSE,286.2938,286.2938,,,,286.2966,286.2981,,,,,,0,0,0,0,1,,,,,,,,,,,,,,,,,,,,,,,,,,,,,,,,,,
,,,,,5dceeba4144b510411fb4566,2026-02-02_12h45.47.379,causal,2025.1.1,Win32,60.60606061,,,,,,,,,,,,,,,,,,,,,,,,,,,,,,,,,,,,,,,,,,,,,,,,,,,,,,,,,,,,,,,,,,,,,,,,,,,,,,,,,,,,,,,,,5,0,5,0,1,,,,,,,,,,,,,,,,,,,,,,,,,,,,,
,,,,,5dceeba4144b510411fb4566,2026-02-02_12h45.47.379,causal,2025.1.1,Win32,60.60606061,,,,,,,,,,,,,,,,,,,,,,,,,,,,,,,,286.2982,287.5606,287.5607,287.5608,test,309.928,309.9281,289.0777,292.7775,green,stimuli/collisions/hit/stim12.mp4,k,3.3462,,TRUE,292.7809,304.6771,100,1,[1.2665999999045994],[1.2665999999045994],red,green,blue,0,0,304.6785,306.4012,0,[],[],1,[306.44929999995236],[306.44929999995236],306.4016,309.9266,0.7638,205,TRUE,FALSE,309.9267,309.9269,,,,309.9282,309.9293,,,,,,0,0,0,0,1,,,,,,,,,,,,,,,,,,,,,,,,,,,,,,,,,,
,,,,,5dceeba4144b510411fb4566,2026-02-02_12h45.47.379,causal,2025.1.1,Win32,60.60606061,,,,,,,,,,,,,,,,,,,,,,,,,,,,,,,,,,,,,,,,,,,,,,,,,,,,,,,,,,,,,,,,,,,,,,,,,,,,,,,,,,,,,,,,,6,0,6,0,1,,,,,,,,,,,,,,,,,,,,,,,,,,,,,
,,,,,5dceeba4144b510411fb4566,2026-02-02_12h45.47.379,causal,2025.1.1,Win32,60.60606061,,,,,,,,,,,,,,,,,,,,,,,,,,,,,,,,309.9297,311.0429,311.043,311.0431,catch,321.002,321.002,312.5517,316.5024,miss,stimuli/collisions/miss/stim5.mp4,space,3.6004,,TRUE,316.5045,316.5068,,0,[],[],red,green,blue,,,316.5073,318.2174,0,[],[],1,[318.2656000000239],[318.2656000000239],318.2176,321.0013,0.3996,230,TRUE,FALSE,321.0013,321.0013,,,,321.002,321.0024,,,,,,0,0,0,0,1,,,,,,,,,,,,,,,,,,,,,,,,,,,,,,,,,,
,,,,,5dceeba4144b510411fb4566,2026-02-02_12h45.47.379,causal,2025.1.1,Win32,60.60606061,,,,,,,,,,,,,,,,,,,,,,,,,,,,,,,,,,,,,,,,,,,,,,,,,,,,,,,,,,,,,,,,,,,,,,,,,,,,,,,,,,,,,,,,,7,0,7,0,1,,,,,,,,,,,,,,,,,,,,,,,,,,,,,
,,,,,5dceeba4144b510411fb4566,2026-02-02_12h45.47.379,causal,2025.1.1,Win32,60.60606061,,,,,,,,,,,,,,,,,,,,,,,,,,,,,,,,321.0024,322.6682,322.6683,322.6684,test,368.9924,370.0084,324.1847,327.4151,blue,stimuli/collisions/hit/stim18.mp4,f,2.8795,,TRUE,327.4172,340.5342,0,1,[2.0918999999761922],[2.0918999999761922],red,green,blue,100,0,340.5352,343.0347,0,[],[],1,[343.0828999999762],[343.0828999999762],343.0349,346.7256,0.2605,250,TRUE,TRUE,346.7257,350.6587,"[""space""]",[1.9013999999761495],[null],370.0086,371.2328,f,0.8545,,9,"[0.77,0.89,0.48,0.8,0.69,0.67,0.52,0.59,0.53,0.85]",9,0,9,0,1,,,,,,,,,,,,,,,,,,,,,,,,,,,,,,,,,,
,,,,,5dceeba4144b510411fb4566,2026-02-02_12h45.47.379,causal,2025.1.1,Win32,60.60606061,,,,,,,,,,,,,,,,,,,,,,,,,,,,,,,,,,,,,,,,,,,,,,,,,,,,,,,,,,,,,,,,,,,,,,,,,,,,,,,,,,,,,,,,,8,0,8,0,1,,,,,,,,,,,,,,,,,,,,,,,,,,,,,
,,,,,5dceeba4144b510411fb4566,2026-02-02_12h45.47.379,causal,2025.1.1,Win32,60.60606061,,,,,,,,,,,,,,,,,,,,,,,,,,,,,,,,371.2331,372.4081,372.4082,372.4082,test,390.708,390.708,373.925,376.8745,red,stimuli/collisions/hit/stim14.mp4,j,2.5839,,TRUE,376.8766,387.3661,0,1,[0.7997000000477215],[0.7997000000477215],red,green,blue,0,100,387.367,388.5741,0,[],[],1,[388.62229999995236],[388.62229999995236],388.5742,390.7073,0.3561,270,TRUE,FALSE,390.7073,390.7074,,,,390.7081,390.7082,,,,,,0,0,0,0,1,,,,,,,,,,,,,,,,,,,,,,,,,,,,,,,,,,
,,,,,5dceeba4144b510411fb4566,2026-02-02_12h45.47.379,causal,2025.1.1,Win32,60.60606061,,,,,,,,,,,,,,,,,,,,,,,,,,,,,,,,,,,,,,,,,,,,,,,,,,,,,,,,,,,,,,,,,,,,,,,,,,,,,,,,,,,,,,,,,9,0,9,0,1,,,,,,,,,,,,,,,,,,,,,,,,,,,,,
,,,,,5dceeba4144b510411fb4566,2026-02-02_12h45.47.379,causal,2025.1.1,Win32,60.60606061,,,,,,,,,,,,,,,,,,,,,,,,,,,,,,,,390.7084,391.6739,391.674,391.674,test,418.1407,418.1408,393.1749,396.2237,red,stimuli/collisions/hit/stim8.mp4,j,2.6835,,TRUE,396.228,409.432,0,1,[1.3157999999522758],[1.3157999999522758],red,green,blue,100,0,409.4329,411.4738,1,[411.52250000000004],[411.52250000000004],0,[],[],411.474,418.1401,0.6565,265,FALSE,FALSE,418.1401,418.1401,,,,418.1409,418.1412,,,,,,0,0,0,0,1,,,,,,,,,,,,,,,,,,,,,,,,,,,,,,,,,,
,,,,,5dceeba4144b510411fb4566,2026-02-02_12h45.47.379,causal,2025.1.1,Win32,60.60606061,,,,,,,,,,,,,,,,,,,,,,,,,,,,,,,,,,,,,,,,,,,,,,,,,,,,,,,,,,,,,,,,,,,,,,,,,,,,,,,,,,,,,,,,,10,0,10,0,1,,,,,,,,,,,,,,,,,,,,,,,,,,,,,
,,,,,5dceeba4144b510411fb4566,2026-02-02_12h45.47.379,causal,2025.1.1,Win32,60.60606061,,,,,,,,,,,,,,,,,,,,,,,,,,,,,,,,418.1414,421.14,421.1401,421.1401,test,438.2573,438.2574,422.6408,425.3066,green,stimuli/collisions/hit/stim7.mp4,k,2.3144,,TRUE,425.3105,434.0569,100,1,[1.3583000000715515],[1.3583000000715515],red,green,blue,0,0,434.0584,435.5394,0,[],[],1,[435.58750000000003],[435.58750000000003],435.5395,438.2564,0.9556,290,TRUE,FALSE,438.2565,438.2565,,,,438.2575,438.2579,,,,,,0,0,0,0,1,,,,,,,,,,,,,,,,,,,,,,,,,,,,,,,,,,
,,,,,5dceeba4144b510411fb4566,2026-02-02_12h45.47.379,causal,2025.1.1,Win32,60.60606061,,,,,,,,,,,,,,,,,,,,,,,,,,,,,,,,,,,,,,,,,,,,,,,,,,,,,,,,,,,,,,,,,,,,,,,,,,,,,,,,,,,,,,,,,11,0,11,0,1,,,,,,,,,,,,,,,,,,,,,,,,,,,,,
,,,,,5dceeba4144b510411fb4566,2026-02-02_12h45.47.379,causal,2025.1.1,Win32,60.60606061,,,,,,,,,,,,,,,,,,,,,,,,,,,,,,,,438.2581,439.0063,439.0063,439.0064,test,456.6732,456.6733,440.5234,444.5224,red,stimuli/collisions/hit/stim17.mp4,j,3.6338,,TRUE,444.5241,452.5146,0,1,[0.9329999999999927],[0.9329999999999927],red,green,blue,0,100,452.5154,453.7722,0,[],[],1,[453.8203999999762],[453.8203999999762],453.7725,456.6725,0.6762,315,TRUE,FALSE,456.6726,456.6726,,,,456.6733,456.6737,,,,,,0,0,0,0,1,,,,,,,,,,,,,,,,,,,,,,,,,,,,,,,,,,
,,,,,5dceeba4144b510411fb4566,2026-02-02_12h45.47.379,causal,2025.1.1,Win32,60.60606061,,,,,,,,,,,,,,,,,,,,,,,,,,,,,,,,,,,,,,,,,,,,,,,,,,,,,,,,,,,,,,,,,,,,,,,,,,,,,,,,,,,,,,,,,12,0,12,0,1,,,,,,,,,,,,,,,,,,,,,,,,,,,,,
,,,,,5dceeba4144b510411fb4566,2026-02-02_12h45.47.379,causal,2025.1.1,Win32,60.60606061,,,,,,,,,,,,,,,,,,,,,,,,,,,,,,,,456.6739,458.1388,458.1388,458.1389,catch,466.4226,466.4226,459.6557,462.2624,miss,stimuli/collisions/miss/stim6.mp4,space,2.2644,,TRUE,462.2639,462.2662,,0,[],[],red,green,blue,,,462.2667,464.1886,0,[],[],1,[464.2368999999762],[464.2368999999762],464.1888,466.4221,1.7356,345,TRUE,FALSE,466.4221,466.4221,,,,466.4226,466.4229,,,,,,0,0,0,0,1,,,,,,,,,,,,,,,,,,,,,,,,,,,,,,,,,,
,,,,,5dceeba4144b510411fb4566,2026-02-02_12h45.47.379,causal,2025.1.1,Win32,60.60606061,,,,,,,,,,,,,,,,,,,,,,,,,,,,,,,,,,,,,,,,,,,,,,,,,,,,,,,,,,,,,,,,,,,,,,,,,,,,,,,,,,,,,,,,,13,0,13,0,1,,,,,,,,,,,,,,,,,,,,,,,,,,,,,
,,,,,5dceeba4144b510411fb4566,2026-02-02_12h45.47.379,causal,2025.1.1,Win32,60.60606061,,,,,,,,,,,,,,,,,,,,,,,,,,,,,,,,466.4231,467.772,467.772,467.772,catch,476.8394,476.8396,469.2891,472.4383,miss,stimuli/collisions/miss/stim4.mp4,space,2.789,,TRUE,472.4399,472.4443,,0,[],[],red,green,blue,,,472.4449,473.9054,0,[],[],1,[473.95360000002387],[473.95360000002387],473.9057,476.8386,1.211,375,TRUE,FALSE,476.8386,476.8387,,,,476.8396,476.8399,,,,,,0,0,0,0,1,,,,,,,,,,,,,,,,,,,,,,,,,,,,,,,,,,
,,,,,5dceeba4144b510411fb4566,2026-02-02_12h45.47.379,causal,2025.1.1,Win32,60.60606061,,,,,,,,,,,,,,,,,,,,,,,,,,,,,,,,,,,,,,,,,,,,,,,,,,,,,,,,,,,,,,,,,,,,,,,,,,,,,,,,,,,,,,,,,14,0,14,0,1,,,,,,,,,,,,,,,,,,,,,,,,,,,,,
,,,,,5dceeba4144b510411fb4566,2026-02-02_12h45.47.379,causal,2025.1.1,Win32,60.60606061,,,,,,,,,,,,,,,,,,,,,,,,,,,,,,,,476.84,477.6218,477.6219,477.6219,test,495.2551,495.2552,479.139,482.9447,blue,stimuli/collisions/hit/stim4.mp4,f,3.4575,,TRUE,482.946,492.0655,0,1,[1.0160000000000764],[1.0161000000239255],red,green,blue,100,0,492.0666,493.2298,0,[],[],1,[493.2776000000239],[493.2776000000239],493.23,495.2547,0.5525,400,TRUE,FALSE,495.2548,495.2548,,,,495.2552,495.2555,,,,,,0,0,0,0,1,,,,,,,,,,,,,,,,,,,,,,,,,,,,,,,,,,
,,,,,5dceeba4144b510411fb4566,2026-02-02_12h45.47.379,causal,2025.1.1,Win32,60.60606061,,,,,,,,,,,,,,,,,,,,,,,,,,,,,,,,,,,,,,,,,,,,,,,,,,,,,,,,,,,,,,,,,,,,,,,,,,,,,,,,,,,,,,,,,15,0,15,0,1,,,,,,,,,,,,,,,,,,,,,,,,,,,,,
,,,,,5dceeba4144b510411fb4566,2026-02-02_12h45.47.379,causal,2025.1.1,Win32,60.60606061,,,,,,,,,,,,,,,,,,,,,,,,,,,,,,,,495.2556,495.9546,495.9546,495.9546,test,534.3541,535.3702,497.4554,500.1712,red,stimuli/collisions/hit/stim9.mp4,j,2.3507,,TRUE,500.173,506.8471,0,1,[0.7991000000238273],[0.7991000000238273],red,green,blue,0,100,506.8483,507.8876,0,[],[],1,[507.93570000004775],[507.93570000004775],507.8878,510.1209,0.6193,425,TRUE,TRUE,510.1209,514.5213,"[""space""]",[2.368899999976179],[null],535.3703,536.3537,k,0.6306,,9,"[0.87,0.51,0.7,0.44,0.56,0.55,1.29,0.56,0.63]",9,0,9,0,1,,,,,,,,,,,,,,,,,,,,,,,,,,,,,,,,,,
,,,,,5dceeba4144b510411fb4566,2026-02-02_12h45.47.379,causal,2025.1.1,Win32,60.60606061,,,,,,,,,,,,,,,,,,,,,,,,,,,,,,,,,,,,,,,,,,,,,,,,,,,,,,,,,,,,,,,,,,,,,,,,,,,,,,,,,,,,,,,,,16,0,16,0,1,,,,,,,,,,,,,,,,,,,,,,,,,,,,,
,,,,,5dceeba4144b510411fb4566,2026-02-02_12h45.47.379,causal,2025.1.1,Win32,60.60606061,,,,,,,,,,,,,,,,,,,,,,,,,,,,,,,,536.3541,537.1869,537.187,537.187,test,555.5704,555.5706,538.7039,541.409,blue,stimuli/collisions/hit/stim1.mp4,f,2.3782,,TRUE,541.4107,550.5796,0,1,[1.2168999999761354],[1.2168999999761354],red,green,blue,0,100,550.5809,552.5616,1,[552.6101000000239],[552.6101000000239],0,[],[],552.5618,555.5697,0.9918,420,FALSE,FALSE,555.5698,555.5698,,,,555.5706,555.571,,,,,,0,0,0,0,1,,,,,,,,,,,,,,,,,,,,,,,,,,,,,,,,,,
,,,,,5dceeba4144b510411fb4566,2026-02-02_12h45.47.379,causal,2025.1.1,Win32,60.60606061,,,,,,,,,,,,,,,,,,,,,,,,,,,,,,,,,,,,,,,,,,,,,,,,,,,,,,,,,,,,,,,,,,,,,,,,,,,,,,,,,,,,,,,,,17,0,17,0,1,,,,,,,,,,,,,,,,,,,,,,,,,,,,,
,,,,,5dceeba4144b510411fb4566,2026-02-02_12h45.47.379,causal,2025.1.1,Win32,60.60606061,,,,,,,,,,,,,,,,,,,,,,,,,,,,,,,,555.5712,558.0364,558.0364,558.0365,test,574.8362,574.8363,559.5433,562.9527,blue,stimuli/collisions/hit/stim2.mp4,f,3.0504,,TRUE,562.9543,570.7116,0,1,[1.0156000000238237],[1.0156000000238237],red,green,blue,100,0,570.7124,572.8025,0,[],[],1,[572.8506000000239],[572.8506000000239],572.8027,574.8356,0.8596,445,TRUE,FALSE,574.8356,574.8356,,,,574.8363,574.8369,,,,,,0,0,0,0,1,,,,,,,,,,,,,,,,,,,,,,,,,,,,,,,,,,
,,,,,5dceeba4144b510411fb4566,2026-02-02_12h45.47.379,causal,2025.1.1,Win32,60.60606061,,,,,,,,,,,,,,,,,,,,,,,,,,,,,,,,,,,,,,,,,,,,,,,,,,,,,,,,,,,,,,,,,,,,,,,,,,,,,,,,,,,,,,,,,18,0,18,0,1,,,,,,,,,,,,,,,,,,,,,,,,,,,,,
,,,,,5dceeba4144b510411fb4566,2026-02-02_12h45.47.379,causal,2025.1.1,Win32,60.60606061,,,,,,,,,,,,,,,,,,,,,,,,,,,,,,,,574.8371,576.1521,576.1522,576.1522,catch,585.6863,585.6863,577.6528,581.4753,miss,stimuli/collisions/miss/stim1.mp4,space,3.4638,,TRUE,581.4771,581.4819,,0,[],[],red,green,blue,,,581.4827,583.0189,0,[],[],1,[583.0672000000477],[583.0672000000477],583.019,585.6856,0.5362,470,TRUE,FALSE,585.6856,585.6856,,,,585.6863,585.6866,,,,,,0,0,0,0,1,,,,,,,,,,,,,,,,,,,,,,,,,,,,,,,,,,
,,,,,5dceeba4144b510411fb4566,2026-02-02_12h45.47.379,causal,2025.1.1,Win32,60.60606061,,,,,,,,,,,,,,,,,,,,,,,,,,,,,,,,,,,,,,,,,,,,,,,,,,,,,,,,,,,,,,,,,,,,,,,,,,,,,,,,,,,,,,,,,19,0,19,0,1,,,,,,,,,,,,,,,,,,,,,,,,,,,,,
,,,,,5dceeba4144b510411fb4566,2026-02-02_12h45.47.379,causal,2025.1.1,Win32,60.60606061,,,,,,,,,,,,,,,,,,,,,,,,,,,,,,,,585.6866,586.4351,586.4351,586.4351,test,602.1362,602.1364,587.9372,590.442,blue,stimuli/collisions/hit/stim16.mp4,f,2.1691,,TRUE,590.4441,598.4783,0,1,[1.9672000000476828],[1.9672000000476828],red,green,blue,100,0,598.4792,599.7353,0,[],[],1,[599.7832999999523],[599.7832999999523],599.7354,602.1354,0.6409,495,TRUE,FALSE,602.1354,602.1355,,,,602.1364,602.1368,,,,,,0,0,0,0,1,,,,,,,,,,,,,,,,,,,,,,,,,,,,,,,,,,
,,,,,5dceeba4144b510411fb4566,2026-02-02_12h45.47.379,causal,2025.1.1,Win32,60.60606061,,,,,,,,,,,,,,,,,,,,,,,,,,,,,,,,,,,,,,,,,,,,,,,,,,,,,,,,,,,,,,,,,,,,,,,,,,,,,,,,,,,,,,,,,20,0,20,0,1,,,,,,,,,,,,,,,,,,,,,,,,,,,,,
,,,,,5dceeba4144b510411fb4566,2026-02-02_12h45.47.379,causal,2025.1.1,Win32,60.60606061,,,,,,,,,,,,,,,,,,,,,,,,,,,,,,,,602.137,602.7847,602.7848,602.7848,test,622.0775,622.0776,604.2856,607.5768,red,stimuli/collisions/hit/stim3.mp4,j,2.9337,,TRUE,607.5781,615.3764,100,1,[1.2989000000952728],[1.2989000000952728],red,green,blue,0,0,615.3774,617.0099,1,[617.0585],[617.0585],0,[],[],617.01,622.0769,0.4063,490,FALSE,FALSE,622.077,622.077,,,,622.0776,622.0777,,,,,,0,0,0,0,1,,,,,,,,,,,,,,,,,,,,,,,,,,,,,,,,,,
,,,,,5dceeba4144b510411fb4566,2026-02-02_12h45.47.379,causal,2025.1.1,Win32,60.60606061,,,,,,,,,,,,,,,,,,,,,,,,,,,,,,,,,,,,,,,,,,,,,,,,,,,,,,,,,,,,,,,,,,,,,,,,,,,,,,,,,,,,,,,,,21,0,21,0,1,,,,,,,,,,,,,,,,,,,,,,,,,,,,,
,,,,,5dceeba4144b510411fb4566,2026-02-02_12h45.47.379,causal,2025.1.1,Win32,60.60606061,,,,,,,,,,,,,,,,,,,,,,,,,,,,,,,,622.0778,623.9766,623.9767,623.9768,catch,661.8169,662.8333,625.4927,628.251,green,stimuli/collisions/miss/stim3.mp4,k,2.4148,,TRUE,628.2528,635.8265,0,1,[0.899799999952279],[0.899799999952279],red,green,blue,0,0,635.8273,638.0675,1,[638.116],[638.116],0,[],[],638.0677,640.9004,1.5852,485,FALSE,TRUE,640.9004,644.3505,"[""space""]",[1.4332999999522826],[null],662.8333,663.817,k,0.6171,,9,"[0.65,0.55,0.62,0.73,0.55,0.48,0.52,0.48,0.52,0.62]",9,0,9,0,1,,,,,,,,,,,,,,,,,,,,,,,,,,,,,,,,,,
,,,,,5dceeba4144b510411fb4566,2026-02-02_12h45.47.379,causal,2025.1.1,Win32,60.60606061,,,,,,,,,,,,,,,,,,,,,,,,,,,,,,,,,,,,,,,,,,,,,,,,,,,,,,,,,,,,,,,,,,,,,,,,,,,,,,,,,,,,,,,,,22,0,22,0,1,,,,,,,,,,,,,,,,,,,,,,,,,,,,,
,,,,,5dceeba4144b510411fb4566,2026-02-02_12h45.47.379,causal,2025.1.1,Win32,60.60606061,,,,,,,,,,,,,,,,,,,,,,,,,,,,,,,,663.8173,664.8167,664.8168,664.8168,test,681.3676,681.3678,666.3335,670.023,red,stimuli/collisions/hit/stim5.mp4,j,3.331,,TRUE,670.0251,677.3417,0,1,[0.9488000000715147],[0.9488000000715147],red,green,blue,0,100,677.3428,678.7994,0,[],[],1,[678.8476000000239],[678.8476000000239],678.7995,681.3665,0.609,510,TRUE,FALSE,681.3665,681.3666,,,,681.3679,681.3686,,,,,,0,0,0,0,1,,,,,,,,,,,,,,,,,,,,,,,,,,,,,,,,,,
,,,,,5dceeba4144b510411fb4566,2026-02-02_12h45.47.379,causal,2025.1.1,Win32,60.60606061,,,,,,,,,,,,,,,,,,,,,,,,,,,,,,,,,,,,,,,,,,,,,,,,,,,,,,,,,,,,,,,,,,,,,,,,,,,,,,,,,,,,,,,,,23,0,23,0,1,,,,,,,,,,,,,,,,,,,,,,,,,,,,,
,,,,,5dceeba4144b510411fb4566,2026-02-02_12h45.47.379,causal,2025.1.1,Win32,60.60606061,,,,,,,,,,,,,,,,,,,,,,,,,,,,,,,,681.3689,682.2331,682.2333,682.2333,catch,711.8822,712.8992,683.7505,686.6993,miss,stimuli/collisions/miss/stim2.mp4,space,2.5991,,TRUE,686.7017,686.7076,,0,[],[],red,green,blue,,,686.7083,688.0496,0,[],[],1,[688.0978999999762],[688.0978999999762],688.0498,690.1994,1.4009,540,TRUE,TRUE,690.1994,693.2323,"[""space""]",[1.0027999999523445],[null],712.8993,713.8661,j,0.6,,9,"[0.74,0.59,0.76,0.45,0.45,0.54,1.57,0.56,0.62,0.6]",9,0,9,0,1,,,,,,,,,,,,,,,,,,,,,,,,,,,,,,,,,,
,,,,,5dceeba4144b510411fb4566,2026-02-02_12h45.47.379,causal,2025.1.1,Win32,60.60606061,,,,,,,,,,,,,,,,,,,,,,,,,,,,,,,,,,,,,,,,,,,,,,,,,,,,,,,,,,,,,,,,,,,,,,,,,,,,,,,,,,,,,,,,,24,0,24,0,1,,,,,,,,,,,,,,,,,,,,,,,,,,,,,
,,,,,5dceeba4144b510411fb4566,2026-02-02_12h45.47.379,causal,2025.1.1,Win32,60.60606061,,,,,,,,,,,,,,,,,,,,,,,,,,,,,,,,713.8664,714.6988,714.6988,714.6988,test,731.8154,731.8155,716.2154,718.6748,red,stimuli/collisions/hit/stim6.mp4,j,2.0993,,TRUE,718.6772,727.308,0,1,[0.9501000000238946],[0.9501000000238946],red,green,blue,0,100,727.3093,728.8903,0,[],[],1,[728.9382999999524],[728.9382999999524],728.8904,731.8147,1.1407,570,TRUE,FALSE,731.8148,731.8149,,,,731.8155,731.8159,,,,,,0,0,0,0,1,,,,,,,,,,,,,,,,,,,,,,,,,,,,,,,,,,
,,,,,5dceeba4144b510411fb4566,2026-02-02_12h45.47.379,causal,2025.1.1,Win32,60.60606061,,,,,,,,,,,,,,,,,,,,,,,,,,,,,,,,,,,,,,,,,,,,,,,,,,,,,,,,,,,,,,,,,,,,,,,,,,,,,,,,,,,,,,,,,25,0,25,0,1,,,,,,,,,,,,,,,,,,,,,,,,,,,,,
,,,,,5dceeba4144b510411fb4566,2026-02-02_12h45.47.379,causal,2025.1.1,Win32,60.60606061,,,,,,,,,,,,,,,,,,,,,,,,,,,,,,,,731.816,732.6483,732.6483,732.6483,test,749.132,749.1321,734.1653,737.4983,blue,stimuli/collisions/hit/stim13.mp4,f,2.9675,,TRUE,737.4999,745.3559,0,1,[1.5741999999283962],[1.5741999999283962],red,green,blue,100,0,745.3569,746.5143,0,[],[],1,[746.5623999999762],[746.5623999999762],746.5145,749.131,0.8025,595,TRUE,FALSE,749.1311,749.1312,,,,749.1322,749.1327,,,,,,0,0,0,0,1,,,,,,,,,,,,,,,,,,,,,,,,,,,,,,,,,,
,,,,,5dceeba4144b510411fb4566,2026-02-02_12h45.47.379,causal,2025.1.1,Win32,60.60606061,,,,,,,,,,,,,,,,,,,,,,,,,,,,,,,,,,,,,,,,,,,,,,,,,,,,,,,,,,,,,,,,,,,,,,,,,,,,,,,,,,,,,,,,,26,0,26,0,1,,,,,,,,,,,,,,,,,,,,,,,,,,,,,
,,,,,5dceeba4144b510411fb4566,2026-02-02_12h45.47.379,causal,2025.1.1,Win32,60.60606061,,,,,,,,,,,,,,,,,,,,,,,,,,,,,,,,,,,,,,,,,,,,,,,,,,,,,,,,,,,,,,,,,,,,,,,,,,,,,,,,,,,,,,,,,,,,,,749.1331,758.6644,,,,,,,,,,,,,,,,,,,,,,,,,,,
,,,,,5dceeba4144b510411fb4566,2026-02-02_12h45.47.379,causal,2025.1.1,Win32,60.60606061,,,,,,,,,,,,,,,,,,,,,,,,,,,,,,,,,,,,,,,,,,,,,,,,,,,,,,,,,,,,,,,,,,,,,,,,,,,,,,,,,,,,,,,,,,,,,,,,758.6644,769.4473,,,,,,,,,,,,,,,,,,,,,,,,,
,,,,,5dceeba4144b510411fb4566,2026-02-02_12h45.47.379,causal,2025.1.1,Win32,60.60606061,,,,,,,,,,,,,,,,,,,,,,,,,,,,,,,,769.4481,770.347,,,,770.3475,771.8641,,,,stimuli/collisions/calibration/stim15.mp4,,,,,,,,,,,,,,,,,,,,,,,,,,,,,,,,,,,,,,,,,,,,,,,,,,,,,,,,770.3473,770.3475,771.8649,775.1973,775.1975,776.5301,1,[776.5327999999523],[776.5327999999523],0,[],[],FALSE,TRUE,FALSE,776.5303,778.5971,"[""space""]",[1.0199000000953902],[null],0,0,0,0,1
,,,,,5dceeba4144b510411fb4566,2026-02-02_12h45.47.379,causal,2025.1.1,Win32,60.60606061,,,,,,,,,,,,,,,,,,,,,,,,,,,,,,,,778.5974,779.5635,,,,779.5637,781.064,,,,stimuli/collisions/calibration/stim2.mp4,,,,,,,,,,,,,,,,,,,,,,,,,,,,,,,,,,,,,,,,,,,,,,,,,,,,,,,,779.5636,779.5636,781.0643,784.7631,784.7643,786.58,0,[],[],1,[786.5826000000238],[786.5826000000238],TRUE,TRUE,TRUE,786.5801,788.68,"[""space""]",[1.0672999999522972],[null],1,0,1,0,1
,,,,,5dceeba4144b510411fb4566,2026-02-02_12h45.47.379,causal,2025.1.1,Win32,60.60606061,,,,,,,,,,,,,,,,,,,,,,,,,,,,,,,,788.6803,789.4798,,,,789.48,790.9967,,,,stimuli/collisions/calibration/stim17.mp4,,,,,,,,,,,,,,,,,,,,,,,,,,,,,,,,,,,,,,,,,,,,,,,,,,,,,,,,789.4799,789.4799,790.9969,794.1966,794.1984,795.1132,0,[],[],1,[795.1157000000477],[795.1157000000477],TRUE,TRUE,TRUE,795.1132,796.5797,"[""space""]",[0.4519999999999982],[null],2,0,2,0,1
,,,,,5dceeba4144b510411fb4566,2026-02-02_12h45.47.379,causal,2025.1.1,Win32,60.60606061,,,,,,,,,,,,,,,,,,,,,,,,,,,,,,,,796.5801,797.5629,,,,797.5631,799.08,,,,stimuli/collisions/calibration/stim18.mp4,,,,,,,,,,,,,,,,,,,,,,,,,,,,,,,,,,,,,,,,,,,,,,,,,,,,,,,,797.563,797.563,799.0804,802.4793,802.4806,803.4461,0,[],[],1,[803.4486000000238],[803.4486000000238],TRUE,FALSE,FALSE,803.4461,804.6464,"[""space""]",[0.1834999999999809],[null],3,0,3,0,1
,,,,,5dceeba4144b510411fb4566,2026-02-02_12h45.47.379,causal,2025.1.1,Win32,60.60606061,,,,,,,,,,,,,,,,,,,,,,,,,,,,,,,,804.6466,805.5461,,,,805.5464,807.0466,,,,stimuli/collisions/calibration/stim8.mp4,,,,,,,,,,,,,,,,,,,,,,,,,,,,,,,,,,,,,,,,,,,,,,,,,,,,,,,,805.5463,805.5464,807.047,810.579,810.5806,811.9627,1,[811.9655],[811.9655],0,[],[],FALSE,FALSE,TRUE,811.9627,813.5792,"[""space""]",[0.58299999999997],[null],4,0,4,0,1
,,,,,5dceeba4144b510411fb4566,2026-02-02_12h45.47.379,causal,2025.1.1,Win32,60.60606061,,,,,,,,,,,,,,,,,,,,,,,,,,,,,,,,813.5795,814.4958,,,,814.496,815.9962,,,,stimuli/collisions/calibration/stim14.mp4,,,,,,,,,,,,,,,,,,,,,,,,,,,,,,,,,,,,,,,,,,,,,,,,,,,,,,,,814.496,814.496,815.9966,819.4454,819.4468,820.2456,1,[820.2483999999762],[820.2483999999762],0,[],[],FALSE,FALSE,TRUE,820.2456,821.3464,"[""space""]",[0.06939999997609902],[null],5,0,5,0,1
,,,,,5dceeba4144b510411fb4566,2026-02-02_12h45.47.379,causal,2025.1.1,Win32,60.60606061,,,,,,,,,,,,,,,,,,,,,,,,,,,,,,,,821.347,822.6625,,,,822.6627,824.1791,,,,stimuli/collisions/calibration/stim7.mp4,,,,,,,,,,,,,,,,,,,,,,,,,,,,,,,,,,,,,,,,,,,,,,,,,,,,,,,,822.6626,822.6627,824.1795,826.8457,826.8506,827.3955,0,[],[],1,[827.398],[827.398],TRUE,TRUE,TRUE,827.3956,828.8786,"[""space""]",[0.46730000007153194],[null],6,0,6,0,1
,,,,,5dceeba4144b510411fb4566,2026-02-02_12h45.47.379,causal,2025.1.1,Win32,60.60606061,,,,,,,,,,,,,,,,,,,,,,,,,,,,,,,,828.8792,829.7955,,,,829.7957,831.3123,,,,stimuli/collisions/calibration/stim13.mp4,,,,,,,,,,,,,,,,,,,,,,,,,,,,,,,,,,,,,,,,,,,,,,,,,,,,,,,,829.7957,829.7957,831.3127,834.2454,834.249,834.8454,0,[],[],1,[834.8478000000715],[834.8478000000715],TRUE,FALSE,FALSE,834.8455,836.412,"[""space""]",[0.5513999999761836],[null],7,0,7,0,1
,,,,,5dceeba4144b510411fb4566,2026-02-02_12h45.47.379,causal,2025.1.1,Win32,60.60606061,,,,,,,,,,,,,,,,,,,,,,,,,,,,,,,,836.4123,837.3952,,,,837.3954,838.9123,,,,stimuli/collisions/calibration/stim4.mp4,,,,,,,,,,,,,,,,,,,,,,,,,,,,,,,,,,,,,,,,,,,,,,,,,,,,,,,,837.3953,837.3954,838.913,841.6783,841.6796,842.2616,0,[],[],1,[842.2641000000239],[842.2641000000239],TRUE,TRUE,TRUE,842.2616,843.6955,"[""space""]",[0.42460000002392917],[null],8,0,8,0,1
,,,,,5dceeba4144b510411fb4566,2026-02-02_12h45.47.379,causal,2025.1.1,Win32,60.60606061,,,,,,,,,,,,,,,,,,,,,,,,,,,,,,,,843.6959,844.5952,,,,844.5954,846.1118,,,,stimuli/collisions/calibration/stim20.mp4,,,,,,,,,,,,,,,,,,,,,,,,,,,,,,,,,,,,,,,,,,,,,,,,,,,,,,,,844.5954,844.5954,846.1122,848.8779,848.8802,849.9947,0,[],[],1,[849.9972000000477],[849.9972000000477],TRUE,TRUE,TRUE,849.9948,851.4448,"[""space""]",[0.4339999999999691],[null],9,0,9,0,1
,,,,,5dceeba4144b510411fb4566,2026-02-02_12h45.47.379,causal,2025.1.1,Win32,60.60606061,,,,,,,,,,,,,,,,,,,,,,,,,,,,,,,,851.4451,852.228,,,,852.2281,853.7448,,,,stimuli/collisions/calibration/stim9.mp4,,,,,,,,,,,,,,,,,,,,,,,,,,,,,,,,,,,,,,,,,,,,,,,,,,,,,,,,852.2281,852.2281,853.7452,856.8445,856.848,857.328,1,[857.3307000000476],[857.3307000000476],0,[],[],FALSE,FALSE,TRUE,857.3281,858.9779,"[""space""]",[0.6172000000476601],[null],10,0,10,0,1
,,,,,5dceeba4144b510411fb4566,2026-02-02_12h45.47.379,causal,2025.1.1,Win32,60.60606061,,,,,,,,,,,,,,,,,,,,,,,,,,,,,,,,858.9784,860.0613,,,,860.0617,861.578,,,,stimuli/collisions/calibration/stim1.mp4,,,,,,,,,,,,,,,,,,,,,,,,,,,,,,,,,,,,,,,,,,,,,,,,,,,,,,,,860.0615,860.0616,861.5785,864.9109,864.9124,866.3277,1,[866.3303999999762],[866.3303999999762],0,[],[],FALSE,FALSE,TRUE,866.3277,867.778,"[""space""]",[0.4346000000238064],[null],11,0,11,0,1
,,,,,5dceeba4144b510411fb4566,2026-02-02_12h45.47.379,causal,2025.1.1,Win32,60.60606061,,,,,,,,,,,,,,,,,,,,,,,,,,,,,,,,867.7781,869.161,,,,869.1612,870.6778,,,,stimuli/collisions/calibration/stim11.mp4,,,,,,,,,,,,,,,,,,,,,,,,,,,,,,,,,,,,,,,,,,,,,,,,,,,,,,,,869.1611,869.1612,870.6781,873.5777,873.5808,874.5365,1,[874.5388999999761],[874.5388999999761],0,[],[],FALSE,TRUE,FALSE,874.5365,876.1442,"[""space""]",[0.5842999999523499],[null],12,0,12,0,1
,,,,,5dceeba4144b510411fb4566,2026-02-02_12h45.47.379,causal,2025.1.1,Win32,60.60606061,,,,,,,,,,,,,,,,,,,,,,,,,,,,,,,,876.1446,877.6112,,,,877.6116,879.1277,,,,stimuli/collisions/calibration/stim12.mp4,,,,,,,,,,,,,,,,,,,,,,,,,,,,,,,,,,,,,,,,,,,,,,,,,,,,,,,,877.6115,877.6116,879.1281,881.9607,881.9625,882.9773,0,[],[],1,[882.9798000000716],[882.9798000000716],TRUE,FALSE,FALSE,882.9774,884.6271,"[""space""]",[0.6332999999523281],[null],13,0,13,0,1
,,,,,5dceeba4144b510411fb4566,2026-02-02_12h45.47.379,causal,2025.1.1,Win32,60.60606061,,,,,,,,,,,,,,,,,,,,,,,,,,,,,,,,884.6273,885.6439,,,,885.6441,887.1605,,,,stimuli/collisions/calibration/stim3.mp4,,,,,,,,,,,,,,,,,,,,,,,,,,,,,,,,,,,,,,,,,,,,,,,,,,,,,,,,885.6441,885.6441,887.1609,891.3018,891.3031,892.4603,1,[892.4631000000238],[892.4631000000238],0,[],[],FALSE,FALSE,TRUE,892.4603,894.4769,"[""space""]",[1.0027000000476392],[null],14,0,14,0,1
,,,,,5dceeba4144b510411fb4566,2026-02-02_12h45.47.379,causal,2025.1.1,Win32,60.60606061,,,,,,,,,,,,,,,,,,,,,,,,,,,,,,,,894.4771,896.3601,,,,896.3603,897.8773,,,,stimuli/collisions/calibration/stim10.mp4,,,,,,,,,,,,,,,,,,,,,,,,,,,,,,,,,,,,,,,,,,,,,,,,,,,,,,,,896.3603,896.3603,897.8778,900.644,900.6454,901.3766,0,[],[],1,[901.3792000000477],[901.3792000000477],TRUE,TRUE,TRUE,901.3768,902.91,"[""space""]",[0.5175000000000409],[null],15,0,15,0,1
,,,,,5dceeba4144b510411fb4566,2026-02-02_12h45.47.379,causal,2025.1.1,Win32,60.60606061,,,,,,,,,,,,,,,,,,,,,,,,,,,,,,,,902.9102,904.3102,,,,904.3104,905.827,,,,stimuli/collisions/calibration/stim19.mp4,,,,,,,,,,,,,,,,,,,,,,,,,,,,,,,,,,,,,,,,,,,,,,,,,,,,,,,,904.3104,904.3104,905.8274,908.8764,908.8776,910.3602,0,[],[],1,[910.3627000000477],[910.3627000000477],TRUE,FALSE,FALSE,910.3603,911.5767,"[""space""]",[0.18310000002384186],[null],16,0,16,0,1
,,,,,5dceeba4144b510411fb4566,2026-02-02_12h45.47.379,causal,2025.1.1,Win32,60.60606061,,,,,,,,,,,,,,,,,,,,,,,,,,,,,,,,911.5776,912.8599,,,,912.86,914.3769,,,,stimuli/collisions/calibration/stim5.mp4,,,,,,,,,,,,,,,,,,,,,,,,,,,,,,,,,,,,,,,,,,,,,,,,,,,,,,,,912.8599,912.86,914.3773,918.5763,918.5776,919.1595,1,[919.1622999999523],[919.1622999999523],0,[],[],FALSE,FALSE,TRUE,919.1595,920.6931,"[""space""]",[0.49700000000007094],[null],17,0,17,0,1
,,,,,5dceeba4144b510411fb4566,2026-02-02_12h45.47.379,causal,2025.1.1,Win32,60.60606061,,,,,,,,,,,,,,,,,,,,,,,,,,,,,,,,920.6933,921.5927,,,,921.5929,923.0932,,,,stimuli/collisions/calibration/stim16.mp4,,,,,,,,,,,,,,,,,,,,,,,,,,,,,,,,,,,,,,,,,,,,,,,,,,,,,,,,921.5928,921.5929,923.0937,926.727,926.7301,927.4427,1,[927.4456000000238],[927.4456000000238],0,[],[],FALSE,FALSE,TRUE,927.4428,928.9928,"[""space""]",[0.5222999999522244],[null],18,0,18,0,1
,,,,,5dceeba4144b510411fb4566,2026-02-02_12h45.47.379,causal,2025.1.1,Win32,60.60606061,,,,,,,,,,,,,,,,,,,,,,,,,,,,,,,,928.9931,932.7758,,,,932.7759,934.2762,,,,stimuli/collisions/calibration/stim6.mp4,,,,,,,,,,,,,,,,,,,,,,,,,,,,,,,,,,,,,,,,,,,,,,,,,,,,,,,,932.7759,932.7759,934.2766,936.9424,936.9434,937.4256,0,[],[],1,[937.4281000000238],[937.4281000000238],TRUE,FALSE,FALSE,937.4257,938.6091,"[""space""]",[0.1675000000000182],[null],19,0,19,0,1
