intro.started,intro.stopped,button_6.numClicks,button_6.timesOn,button_6.timesOff,participant,date,expName,psychopyVersion,OS,frameRate,timing_info.started,timing_info.stopped,button_7.numClicks,button_7.timesOn,button_7.timesOff,hand_positions.started,hand_positions.stopped,space_bar.keys,space_bar.rt,space_bar.duration,train_keys.started,train_keys.stopped,key_resp.keys,key_resp.rt,key_resp.duration,score.started,score.stopped,training.thisRepN,training.thisTrialN,training.thisN,training.thisIndex,training.ran,training_rounds,test_instruct.started,test_instruct.stopped,instruct_cont.started,instruct_cont.stopped,point_instruct.started,point_instruct.stopped,accident_instruct.started,accident_instruct.stopped,advance.started,advance.stopped,flip_video.started,flip_video.stopped,trial_type,buffer.started,buffer.stopped,collision.started,collision.stopped,selection,stimuli_path,select_resp.keys,select_resp.rt,select_resp.duration,resp_trial,responsibility.started,responsibility.stopped,conf_2.response,button.numClicks,button.timesOn,button.timesOff,conf_one,conf_two,conf_three,conf_3.response,conf_1.response,forfeit.started,forfeit.stopped,forfeit_button.numClicks,forfeit_button.timesOn,forfeit_button.timesOff,keep_button.numClicks,keep_button.timesOn,keep_button.timesOff,accuracy.started,accuracy.stopped,rt_diff,acc_points,keep_round,practice_round,begin_review.started,begin_review.stopped,space_bar_6.keys,space_bar_6.rt,space_bar_6.duration,review_keys.started,review_keys.stopped,key_resp_2.keys,key_resp_2.rt,key_resp_2.duration,review_trials,baseline_rts,review.thisRepN,review.thisTrialN,review.thisN,review.thisIndex,review.ran,trials.thisRepN,trials.thisTrialN,trials.thisN,trials.thisIndex,trials.ran,transition.started,transition.stopped,calibrate_instruct.started,calibrate_instruct.stopped,flip_calibration.started,flip_calibration.stopped,calibrate.started,calibrate.stopped,prediction.started,prediction.stopped,miss.numClicks,miss.timesOn,miss.timesOff,hit.numClicks,hit.timesOn,hit.timesOff,calibration_pred,calibration_actual,calibration_score,cal_feedback.started,cal_feedback.stopped,space_bar_12.keys,space_bar_12.rt,space_bar_12.duration,calibration.thisRepN,calibration.thisTrialN,calibration.thisN,calibration.thisIndex,calibration.ran
0.0004,6.5809,1,[1.593800000011921],[1.593800000011921],5f2a5f187bf471245f7dc096,2026-02-02_14h17.13.556,causal,2025.1.1,Win32,60.24096386,,,,,,,,,,,,,,,,,,,,,,,,,,,,,,,,,,,,,,,,,,,,,,,,,,,,,,,,,,,,,,,,,,,,,,,,,,,,,,,,,,,,,,,,,,,,,,,,,,,,,,,,,,,,,,,,,,,,,,,,,,
,,,,,5f2a5f187bf471245f7dc096,2026-02-02_14h17.13.556,causal,2025.1.1,Win32,60.24096386,6.5812,12.2606,1,[0.6929000000059631],[0.6929000000059631],,,,,,,,,,,,,,,,,,,,,,,,,,,,,,,,,,,,,,,,,,,,,,,,,,,,,,,,,,,,,,,,,,,,,,,,,,,,,,,,,,,,,,,,,,,,,,,,,,,,,,,,,,,,,,,,,,,,,
,,,,,5f2a5f187bf471245f7dc096,2026-02-02_14h17.13.556,causal,2025.1.1,Win32,60.24096386,,,,,,12.2606,27.9557,"[""space"",""space""]","[5.699400000005962,12.629100000023843]","[null,null]",,,,,,,,,,,,,,,,,,,,,,,,,,,,,,,,,,,,,,,,,,,,,,,,,,,,,,,,,,,,,,,,,,,,,,,,,,,,,,,,,,,,,,,,,,,,,,,,,,,,,,,,,,,,,,,,
,,,,,5f2a5f187bf471245f7dc096,2026-02-02_14h17.13.556,causal,2025.1.1,Win32,60.24096386,,,,,,,,,,,85.5486,86.7832,k,0.8695,,86.7836,89.4228,0,0,0,0,1,,,,,,,,,,,,,,,,,,,,,,,,,,,,,,,,,,,,,,,,,,,,,,,,,,,,,,,,,,,,,,,,,,,,,,,,,,,,,,,,,,,,,,,,,,,,,,,,,,,,
,,,,,5f2a5f187bf471245f7dc096,2026-02-02_14h17.13.556,causal,2025.1.1,Win32,60.24096386,,,,,,,,,,,145.6464,146.6783,space,0.6776,,146.6783,149.2305,1,0,1,0,1,2,,,,,,,,,,,,,,,,,,,,,,,,,,,,,,,,,,,,,,,,,,,,,,,,,,,,,,,,,,,,,,,,,,,,,,,,,,,,,,,,,,,,,,,,,,,,,,,,,,,
,,,,,5f2a5f187bf471245f7dc096,2026-02-02_14h17.13.556,causal,2025.1.1,Win32,60.24096386,,,,,,,,,,,,,,,,,,,,,,,,149.2312,155.3538,,,,,,,,,,,,,,,,,,,,,,,,,,,,,,,,,,,,,,,,,,,,,,,,,,,,,,,,,,,,,,,,,,,,,,,,,,,,,,,,,,,,,,,,,,,,,,,,,
,,,,,5f2a5f187bf471245f7dc096,2026-02-02_14h17.13.556,causal,2025.1.1,Win32,60.24096386,,,,,,,,,,,,,,,,,,,,,,,,,,155.3539,162.956,,,,,,,,,,,,,,,,,,,,,,,,,,,,,,,,,,,,,,,,,,,,,,,,,,,,,,,,,,,,,,,,,,,,,,,,,,,,,,,,,,,,,,,,,,,,,,,
,,,,,5f2a5f187bf471245f7dc096,2026-02-02_14h17.13.556,causal,2025.1.1,Win32,60.24096386,,,,,,,,,,,,,,,,,,,,,,,,,,,,162.9561,172.2799,,,,,,,,,,,,,,,,,,,,,,,,,,,,,,,,,,,,,,,,,,,,,,,,,,,,,,,,,,,,,,,,,,,,,,,,,,,,,,,,,,,,,,,,,,,,,
,,,,,5f2a5f187bf471245f7dc096,2026-02-02_14h17.13.556,causal,2025.1.1,Win32,60.24096386,,,,,,,,,,,,,,,,,,,,,,,,,,,,,,172.28,176.9885,,,,,,,,,,,,,,,,,,,,,,,,,,,,,,,,,,,,,,,,,,,,,,,,,,,,,,,,,,,,,,,,,,,,,,,,,,,,,,,,,,,,,,,,,,,
,,,,,5f2a5f187bf471245f7dc096,2026-02-02_14h17.13.556,causal,2025.1.1,Win32,60.24096386,,,,,,,,,,,,,,,,,,,,,,,,,,,,,,,,176.9902,177.8938,177.894,177.8941,train,218.0828,219.0939,179.409,182.0735,green,stimuli/collisions/training/stim3.mp4,k,2.2875,,TRUE,182.0745,191.0888,100,1,[1.7080999999940332],[1.7080999999940332],red,green,blue,0,0,191.0891,192.8508,0,[],[],1,[192.86319999998807],[192.86319999998807],192.8513,197.5242,0.9825,25,TRUE,TRUE,197.5243,200.1668,"[""space""]",[0.6133000000119182],[null],219.094,219.8955,f,0.4251,,9,"[1.44,0.62,0.65,0.49,0.49,0.44,0.51,0.45,0.45,0.43]",9,0,9,0,1,,,,,,,,,,,,,,,,,,,,,,,,,,,,,,,,,,
,,,,,5f2a5f187bf471245f7dc096,2026-02-02_14h17.13.556,causal,2025.1.1,Win32,60.24096386,,,,,,,,,,,,,,,,,,,,,,,,,,,,,,,,,,,,,,,,,,,,,,,,,,,,,,,,,,,,,,,,,,,,,,,,,,,,,,,,,,,,,,,,,0,0,0,0,1,,,,,,,,,,,,,,,,,,,,,,,,,,,,,
,,,,,5f2a5f187bf471245f7dc096,2026-02-02_14h17.13.556,causal,2025.1.1,Win32,60.24096386,,,,,,,,,,,,,,,,,,,,,,,,,,,,,,,,219.8961,222.383,222.3831,222.3832,train,231.0488,231.0488,223.9034,226.5526,miss,stimuli/collisions/training/stim2.mp4,space,2.2573,,TRUE,226.5541,226.5572,,0,[],[],red,green,blue,,,226.5579,228.2181,0,[],[],1,[228.23109999999403],[228.23109999999403],228.2182,231.048,1.7427,55,TRUE,FALSE,231.048,231.0481,,,,231.0489,231.0493,,,,,,0,0,0,0,1,,,,,,,,,,,,,,,,,,,,,,,,,,,,,,,,,,
,,,,,5f2a5f187bf471245f7dc096,2026-02-02_14h17.13.556,causal,2025.1.1,Win32,60.24096386,,,,,,,,,,,,,,,,,,,,,,,,,,,,,,,,,,,,,,,,,,,,,,,,,,,,,,,,,,,,,,,,,,,,,,,,,,,,,,,,,,,,,,,,,1,0,1,0,1,,,,,,,,,,,,,,,,,,,,,,,,,,,,,
,,,,,5f2a5f187bf471245f7dc096,2026-02-02_14h17.13.556,causal,2025.1.1,Win32,60.24096386,,,,,,,,,,,,,,,,,,,,,,,,,,,,,,,,231.0494,233.3039,233.304,233.304,train,247.787,247.7871,234.8198,238.7098,red,stimuli/collisions/training/stim1.mp4,j,3.5147,,TRUE,238.7111,244.0705,0,1,[0.5944000000059759],[0.5944000000059759],red,green,blue,0,100,244.0717,245.1776,0,[],[],1,[245.19049999999996],[245.19049999999996],245.1778,247.7863,0.6253,80,TRUE,FALSE,247.7863,247.7864,,,,247.7871,247.7875,,,,,,0,0,0,0,1,,,,,,,,,,,,,,,,,,,,,,,,,,,,,,,,,,
,,,,,5f2a5f187bf471245f7dc096,2026-02-02_14h17.13.556,causal,2025.1.1,Win32,60.24096386,,,,,,,,,,,,,,,,,,,,,,,,,,,,,,,,,,,,,,,,,,,,,,,,,,,,,,,,,,,,,,,,,,,,,,,,,,,,,,,,,,,,,,,,,2,0,2,0,1,,,,,,,,,,,,,,,,,,,,,,,,,,,,,
,,,,,5f2a5f187bf471245f7dc096,2026-02-02_14h17.13.556,causal,2025.1.1,Win32,60.24096386,,,,,,,,,,,,,,,,,,,,,,,,,,,,,,,,247.7876,249.5367,249.5368,249.5368,catch,258.4046,258.4047,251.0525,254.4327,miss,stimuli/collisions/miss/stim5.mp4,space,3.0146,,TRUE,254.4339,254.4365,,0,[],[],red,green,blue,,,254.4373,255.9245,0,[],[],1,[255.93759999999398],[255.93759999999398],255.9248,258.4039,0.9854,105,TRUE,FALSE,258.4039,258.4041,,,,258.4048,258.4051,,,,,,0,0,0,0,1,,,,,,,,,,,,,,,,,,,,,,,,,,,,,,,,,,
,,,,,5f2a5f187bf471245f7dc096,2026-02-02_14h17.13.556,causal,2025.1.1,Win32,60.24096386,,,,,,,,,,,,,,,,,,,,,,,,,,,,,,,,,,,,,,,,,,,,,,,,,,,,,,,,,,,,,,,,,,,,,,,,,,,,,,,,,,,,,,,,,3,0,3,0,1,,,,,,,,,,,,,,,,,,,,,,,,,,,,,
,,,,,5f2a5f187bf471245f7dc096,2026-02-02_14h17.13.556,causal,2025.1.1,Win32,60.24096386,,,,,,,,,,,,,,,,,,,,,,,,,,,,,,,,258.4052,258.98,258.9802,258.9802,catch,266.3809,266.381,260.4845,262.4234,miss,stimuli/collisions/miss/stim2.mp4,space,1.5745,,TRUE,262.4248,262.4276,,0,[],[],red,green,blue,,,262.4289,263.771,0,[],[],1,[263.784],[263.784],263.7712,266.3802,2.4255,140,TRUE,FALSE,266.3803,266.3803,,,,266.381,266.3812,,,,,,0,0,0,0,1,,,,,,,,,,,,,,,,,,,,,,,,,,,,,,,,,,
,,,,,5f2a5f187bf471245f7dc096,2026-02-02_14h17.13.556,causal,2025.1.1,Win32,60.24096386,,,,,,,,,,,,,,,,,,,,,,,,,,,,,,,,,,,,,,,,,,,,,,,,,,,,,,,,,,,,,,,,,,,,,,,,,,,,,,,,,,,,,,,,,4,0,4,0,1,,,,,,,,,,,,,,,,,,,,,,,,,,,,,
,,,,,5f2a5f187bf471245f7dc096,2026-02-02_14h17.13.556,causal,2025.1.1,Win32,60.24096386,,,,,,,,,,,,,,,,,,,,,,,,,,,,,,,,266.3813,267.1723,267.1725,267.1726,test,279.2928,279.2929,268.6869,271.4214,blue,stimuli/collisions/hit/stim4.mp4,f,2.3564,,TRUE,271.4227,275.8953,0,1,[0.6634999999999991],[0.6634999999999991],red,green,blue,78,0,275.8963,276.4102,0,[],[],1,[276.423],[276.423],276.4105,279.2906,1.6536,170,TRUE,FALSE,279.2906,279.2908,,,,279.293,279.2939,,,,,,0,0,0,0,1,,,,,,,,,,,,,,,,,,,,,,,,,,,,,,,,,,
,,,,,5f2a5f187bf471245f7dc096,2026-02-02_14h17.13.556,causal,2025.1.1,Win32,60.24096386,,,,,,,,,,,,,,,,,,,,,,,,,,,,,,,,,,,,,,,,,,,,,,,,,,,,,,,,,,,,,,,,,,,,,,,,,,,,,,,,,,,,,,,,,5,0,5,0,1,,,,,,,,,,,,,,,,,,,,,,,,,,,,,
,,,,,5f2a5f187bf471245f7dc096,2026-02-02_14h17.13.556,causal,2025.1.1,Win32,60.24096386,,,,,,,,,,,,,,,,,,,,,,,,,,,,,,,,279.2941,281.1258,281.1259,281.1259,test,293.12,293.1264,282.6382,284.6355,red,stimuli/collisions/hit/stim1.mp4,j,1.5965,,TRUE,284.6417,288.809,0,1,[0.7881999999880804],[0.7881999999880804],red,green,blue,0,100,288.8101,289.7855,0,[],[],1,[289.79829999998213],[289.79829999998213],289.7858,293.1188,1.7735,200,TRUE,FALSE,293.1188,293.119,,,,293.1267,293.1272,,,,,,0,0,0,0,1,,,,,,,,,,,,,,,,,,,,,,,,,,,,,,,,,,
,,,,,5f2a5f187bf471245f7dc096,2026-02-02_14h17.13.556,causal,2025.1.1,Win32,60.24096386,,,,,,,,,,,,,,,,,,,,,,,,,,,,,,,,,,,,,,,,,,,,,,,,,,,,,,,,,,,,,,,,,,,,,,,,,,,,,,,,,,,,,,,,,6,0,6,0,1,,,,,,,,,,,,,,,,,,,,,,,,,,,,,
,,,,,5f2a5f187bf471245f7dc096,2026-02-02_14h17.13.556,causal,2025.1.1,Win32,60.24096386,,,,,,,,,,,,,,,,,,,,,,,,,,,,,,,,293.1274,293.6849,293.685,293.685,test,305.5939,305.594,295.1913,298.4309,blue,stimuli/collisions/hit/stim13.mp4,f,2.862,,TRUE,298.4322,302.839,0,1,[0.8718000000118877],[0.8718000000118877],red,green,blue,82,0,302.8398,303.5389,0,[],[],1,[303.5517999999821],[303.5517999999821],303.5392,305.5932,0.908,225,TRUE,FALSE,305.5933,305.5933,,,,305.5941,305.5943,,,,,,0,0,0,0,1,,,,,,,,,,,,,,,,,,,,,,,,,,,,,,,,,,
,,,,,5f2a5f187bf471245f7dc096,2026-02-02_14h17.13.556,causal,2025.1.1,Win32,60.24096386,,,,,,,,,,,,,,,,,,,,,,,,,,,,,,,,,,,,,,,,,,,,,,,,,,,,,,,,,,,,,,,,,,,,,,,,,,,,,,,,,,,,,,,,,7,0,7,0,1,,,,,,,,,,,,,,,,,,,,,,,,,,,,,
,,,,,5f2a5f187bf471245f7dc096,2026-02-02_14h17.13.556,causal,2025.1.1,Win32,60.24096386,,,,,,,,,,,,,,,,,,,,,,,,,,,,,,,,305.5945,306.3188,306.319,306.319,test,335.1385,336.1394,307.8323,313.4324,timeout,stimuli/collisions/hit/stim11.mp4,j,5.2723,,TRUE,313.4334,313.4365,,0,[],[],red,green,blue,,,313.4371,313.4372,0,[],[],0,[],[],313.4373,313.4842,-2.0297,175,TRUE,TRUE,313.4843,316.1057,"[""space""]",[0.5955000000000155],[null],336.1394,337.0734,f,0.5651,,9,"[0.53,0.39,0.74,0.55,0.61,0.72,1.18,0.8,1.04,0.57]",9,0,9,0,1,,,,,,,,,,,,,,,,,,,,,,,,,,,,,,,,,,
,,,,,5f2a5f187bf471245f7dc096,2026-02-02_14h17.13.556,causal,2025.1.1,Win32,60.24096386,,,,,,,,,,,,,,,,,,,,,,,,,,,,,,,,,,,,,,,,,,,,,,,,,,,,,,,,,,,,,,,,,,,,,,,,,,,,,,,,,,,,,,,,,8,0,8,0,1,,,,,,,,,,,,,,,,,,,,,,,,,,,,,
,,,,,5f2a5f187bf471245f7dc096,2026-02-02_14h17.13.556,causal,2025.1.1,Win32,60.24096386,,,,,,,,,,,,,,,,,,,,,,,,,,,,,,,,337.0738,337.669,337.6691,337.6691,test,350.0702,350.0703,339.1835,341.8765,blue,stimuli/collisions/hit/stim18.mp4,f,2.3106,,TRUE,341.8778,347.036,0,1,[0.8440000000000509],[0.8440999999940573],red,green,blue,75,0,347.0373,347.5164,0,[],[],1,[347.52929999998213],[347.52929999998213],347.5166,350.0696,0.8294,200,TRUE,FALSE,350.0696,350.0697,,,,350.0703,350.0706,,,,,,0,0,0,0,1,,,,,,,,,,,,,,,,,,,,,,,,,,,,,,,,,,
,,,,,5f2a5f187bf471245f7dc096,2026-02-02_14h17.13.556,causal,2025.1.1,Win32,60.24096386,,,,,,,,,,,,,,,,,,,,,,,,,,,,,,,,,,,,,,,,,,,,,,,,,,,,,,,,,,,,,,,,,,,,,,,,,,,,,,,,,,,,,,,,,9,0,9,0,1,,,,,,,,,,,,,,,,,,,,,,,,,,,,,
,,,,,5f2a5f187bf471245f7dc096,2026-02-02_14h17.13.556,causal,2025.1.1,Win32,60.24096386,,,,,,,,,,,,,,,,,,,,,,,,,,,,,,,,350.0709,350.7118,350.7119,350.7119,test,362.1083,362.1084,352.213,354.3605,red,stimuli/collisions/hit/stim6.mp4,j,1.7704,,TRUE,354.3618,358.9061,0,1,[0.48750000000001137],[0.48750000000001137],red,green,blue,0,93,358.9073,359.7219,0,[],[],1,[359.7346999999881],[359.7346999999881],359.7222,362.1071,1.4696,230,TRUE,FALSE,362.1072,362.1073,,,,362.1085,362.1089,,,,,,0,0,0,0,1,,,,,,,,,,,,,,,,,,,,,,,,,,,,,,,,,,
,,,,,5f2a5f187bf471245f7dc096,2026-02-02_14h17.13.556,causal,2025.1.1,Win32,60.24096386,,,,,,,,,,,,,,,,,,,,,,,,,,,,,,,,,,,,,,,,,,,,,,,,,,,,,,,,,,,,,,,,,,,,,,,,,,,,,,,,,,,,,,,,,10,0,10,0,1,,,,,,,,,,,,,,,,,,,,,,,,,,,,,
,,,,,5f2a5f187bf471245f7dc096,2026-02-02_14h17.13.556,causal,2025.1.1,Win32,60.24096386,,,,,,,,,,,,,,,,,,,,,,,,,,,,,,,,362.1091,362.7749,362.7749,362.7749,test,373.7029,373.703,364.2876,366.6701,green,stimuli/collisions/hit/stim3.mp4,k,1.9989,,TRUE,366.6714,369.9166,93,1,[0.40720000001783774],[0.40720000001783774],red,green,blue,0,0,369.9177,370.9097,0,[],[],1,[370.92239999997616],[370.92239999997616],370.9099,373.7023,1.3411,260,TRUE,FALSE,373.7023,373.7024,,,,373.703,373.7033,,,,,,0,0,0,0,1,,,,,,,,,,,,,,,,,,,,,,,,,,,,,,,,,,
,,,,,5f2a5f187bf471245f7dc096,2026-02-02_14h17.13.556,causal,2025.1.1,Win32,60.24096386,,,,,,,,,,,,,,,,,,,,,,,,,,,,,,,,,,,,,,,,,,,,,,,,,,,,,,,,,,,,,,,,,,,,,,,,,,,,,,,,,,,,,,,,,11,0,11,0,1,,,,,,,,,,,,,,,,,,,,,,,,,,,,,
,,,,,5f2a5f187bf471245f7dc096,2026-02-02_14h17.13.556,causal,2025.1.1,Win32,60.24096386,,,,,,,,,,,,,,,,,,,,,,,,,,,,,,,,373.7035,374.2395,374.2396,374.2396,test,385.5042,385.5043,375.7564,378.8868,green,stimuli/collisions/hit/stim12.mp4,k,2.7514,,TRUE,378.8881,382.4943,91,1,[0.5504000000059932],[0.5504000000059932],red,green,blue,0,0,382.4951,383.1761,0,[],[],1,[383.18899999999996],[383.18899999999996],383.1763,385.5036,1.3586,290,TRUE,FALSE,385.5036,385.5037,,,,385.5043,385.5046,,,,,,0,0,0,0,1,,,,,,,,,,,,,,,,,,,,,,,,,,,,,,,,,,
,,,,,5f2a5f187bf471245f7dc096,2026-02-02_14h17.13.556,causal,2025.1.1,Win32,60.24096386,,,,,,,,,,,,,,,,,,,,,,,,,,,,,,,,,,,,,,,,,,,,,,,,,,,,,,,,,,,,,,,,,,,,,,,,,,,,,,,,,,,,,,,,,12,0,12,0,1,,,,,,,,,,,,,,,,,,,,,,,,,,,,,
,,,,,5f2a5f187bf471245f7dc096,2026-02-02_14h17.13.556,causal,2025.1.1,Win32,60.24096386,,,,,,,,,,,,,,,,,,,,,,,,,,,,,,,,385.5047,386.354,386.3541,386.3541,test,397.0774,397.0776,387.8615,390.4159,red,stimuli/collisions/hit/stim9.mp4,j,2.1706,,TRUE,390.4173,393.6878,0,1,[0.5832999999821595],[0.5832999999821595],red,green,blue,0,76,393.6891,394.4627,0,[],[],1,[394.4752999999821],[394.4752999999821],394.4628,397.0767,0.7994,315,TRUE,FALSE,397.0767,397.0769,,,,397.0776,397.0779,,,,,,0,0,0,0,1,,,,,,,,,,,,,,,,,,,,,,,,,,,,,,,,,,
,,,,,5f2a5f187bf471245f7dc096,2026-02-02_14h17.13.556,causal,2025.1.1,Win32,60.24096386,,,,,,,,,,,,,,,,,,,,,,,,,,,,,,,,,,,,,,,,,,,,,,,,,,,,,,,,,,,,,,,,,,,,,,,,,,,,,,,,,,,,,,,,,13,0,13,0,1,,,,,,,,,,,,,,,,,,,,,,,,,,,,,
,,,,,5f2a5f187bf471245f7dc096,2026-02-02_14h17.13.556,causal,2025.1.1,Win32,60.24096386,,,,,,,,,,,,,,,,,,,,,,,,,,,,,,,,397.078,397.6423,397.6425,397.6426,test,407.8874,407.8875,399.1452,401.5734,red,stimuli/collisions/hit/stim14.mp4,j,2.03,,TRUE,401.5746,404.9257,0,1,[0.4629000000059591],[0.4629000000059591],red,green,blue,0,86,404.9266,405.5668,0,[],[],1,[405.57969999998807],[405.57969999998807],405.567,407.8867,0.91,340,TRUE,FALSE,407.8868,407.8868,,,,407.8875,407.8879,,,,,,0,0,0,0,1,,,,,,,,,,,,,,,,,,,,,,,,,,,,,,,,,,
,,,,,5f2a5f187bf471245f7dc096,2026-02-02_14h17.13.556,causal,2025.1.1,Win32,60.24096386,,,,,,,,,,,,,,,,,,,,,,,,,,,,,,,,,,,,,,,,,,,,,,,,,,,,,,,,,,,,,,,,,,,,,,,,,,,,,,,,,,,,,,,,,14,0,14,0,1,,,,,,,,,,,,,,,,,,,,,,,,,,,,,
,,,,,5f2a5f187bf471245f7dc096,2026-02-02_14h17.13.556,causal,2025.1.1,Win32,60.24096386,,,,,,,,,,,,,,,,,,,,,,,,,,,,,,,,407.888,408.3901,408.3902,408.3912,test,418.311,418.3112,409.9014,412.1412,green,stimuli/collisions/hit/stim7.mp4,k,1.8624,,TRUE,412.1425,415.423,100,1,[0.42309999999400816],[0.42309999999400816],red,green,blue,0,0,415.4239,415.9281,0,[],[],1,[415.9408999999761],[415.9408999999761],415.9283,418.3097,1.4076,370,TRUE,FALSE,418.3098,418.3099,,,,418.3112,418.3115,,,,,,0,0,0,0,1,,,,,,,,,,,,,,,,,,,,,,,,,,,,,,,,,,
,,,,,5f2a5f187bf471245f7dc096,2026-02-02_14h17.13.556,causal,2025.1.1,Win32,60.24096386,,,,,,,,,,,,,,,,,,,,,,,,,,,,,,,,,,,,,,,,,,,,,,,,,,,,,,,,,,,,,,,,,,,,,,,,,,,,,,,,,,,,,,,,,15,0,15,0,1,,,,,,,,,,,,,,,,,,,,,,,,,,,,,
,,,,,5f2a5f187bf471245f7dc096,2026-02-02_14h17.13.556,causal,2025.1.1,Win32,60.24096386,,,,,,,,,,,,,,,,,,,,,,,,,,,,,,,,418.3117,418.8671,418.8671,418.8672,test,446.6078,447.6242,420.3864,423.637,miss,stimuli/collisions/hit/stim10.mp4,space,2.8755,,TRUE,423.6383,423.6414,,0,[],[],red,green,blue,,,423.6422,425.0718,1,[425.08519999998805],[425.08519999998805],0,[],[],425.072,427.7019,1.3645,365,FALSE,TRUE,427.7019,430.241,"[""space""]",[0.5124999999999886],[null],447.6243,448.3411,f,0.3399,,9,"[0.52,0.49,0.54,0.34,0.34,0.42,0.41,0.53,0.36,0.34]",9,0,9,0,1,,,,,,,,,,,,,,,,,,,,,,,,,,,,,,,,,,
,,,,,5f2a5f187bf471245f7dc096,2026-02-02_14h17.13.556,causal,2025.1.1,Win32,60.24096386,,,,,,,,,,,,,,,,,,,,,,,,,,,,,,,,,,,,,,,,,,,,,,,,,,,,,,,,,,,,,,,,,,,,,,,,,,,,,,,,,,,,,,,,,16,0,16,0,1,,,,,,,,,,,,,,,,,,,,,,,,,,,,,
,,,,,5f2a5f187bf471245f7dc096,2026-02-02_14h17.13.556,causal,2025.1.1,Win32,60.24096386,,,,,,,,,,,,,,,,,,,,,,,,,,,,,,,,448.3413,449.1748,449.175,449.175,catch,457.1906,457.1907,450.698,453.867,miss,stimuli/collisions/miss/stim4.mp4,space,2.7869,,TRUE,453.8683,453.8712,,0,[],[],red,green,blue,,,453.8723,454.8341,0,[],[],1,[454.84709999999404],[454.84709999999404],454.8345,457.19,1.2131,395,TRUE,FALSE,457.19,457.19,,,,457.1907,457.191,,,,,,0,0,0,0,1,,,,,,,,,,,,,,,,,,,,,,,,,,,,,,,,,,
,,,,,5f2a5f187bf471245f7dc096,2026-02-02_14h17.13.556,causal,2025.1.1,Win32,60.24096386,,,,,,,,,,,,,,,,,,,,,,,,,,,,,,,,,,,,,,,,,,,,,,,,,,,,,,,,,,,,,,,,,,,,,,,,,,,,,,,,,,,,,,,,,17,0,17,0,1,,,,,,,,,,,,,,,,,,,,,,,,,,,,,
,,,,,5f2a5f187bf471245f7dc096,2026-02-02_14h17.13.556,causal,2025.1.1,Win32,60.24096386,,,,,,,,,,,,,,,,,,,,,,,,,,,,,,,,457.1911,457.7296,457.7297,457.7297,catch,465.5525,465.5525,459.2493,462.3227,miss,stimuli/collisions/miss/stim1.mp4,space,2.7239,,TRUE,462.3249,462.3287,,0,[],[],red,green,blue,,,462.3305,463.1487,0,[],[],1,[463.16169999998806],[463.16169999998806],463.1489,465.5518,1.2761,425,TRUE,FALSE,465.5519,465.5519,,,,465.5525,465.5529,,,,,,0,0,0,0,1,,,,,,,,,,,,,,,,,,,,,,,,,,,,,,,,,,
,,,,,5f2a5f187bf471245f7dc096,2026-02-02_14h17.13.556,causal,2025.1.1,Win32,60.24096386,,,,,,,,,,,,,,,,,,,,,,,,,,,,,,,,,,,,,,,,,,,,,,,,,,,,,,,,,,,,,,,,,,,,,,,,,,,,,,,,,,,,,,,,,18,0,18,0,1,,,,,,,,,,,,,,,,,,,,,,,,,,,,,
,,,,,5f2a5f187bf471245f7dc096,2026-02-02_14h17.13.556,causal,2025.1.1,Win32,60.24096386,,,,,,,,,,,,,,,,,,,,,,,,,,,,,,,,465.553,466.0665,466.0666,466.0666,test,477.1162,477.1163,467.5777,470.3972,blue,stimuli/collisions/hit/stim8.mp4,f,2.4361,,TRUE,470.3988,474.1581,0,1,[0.6833000000119114],[0.6833000000119114],red,green,blue,100,0,474.1589,474.6974,0,[],[],1,[474.71009999999404],[474.71009999999404],474.6975,477.1146,0.9039,450,TRUE,FALSE,477.1147,477.1148,,,,477.1163,477.1165,,,,,,0,0,0,0,1,,,,,,,,,,,,,,,,,,,,,,,,,,,,,,,,,,
,,,,,5f2a5f187bf471245f7dc096,2026-02-02_14h17.13.556,causal,2025.1.1,Win32,60.24096386,,,,,,,,,,,,,,,,,,,,,,,,,,,,,,,,,,,,,,,,,,,,,,,,,,,,,,,,,,,,,,,,,,,,,,,,,,,,,,,,,,,,,,,,,19,0,19,0,1,,,,,,,,,,,,,,,,,,,,,,,,,,,,,
,,,,,5f2a5f187bf471245f7dc096,2026-02-02_14h17.13.556,causal,2025.1.1,Win32,60.24096386,,,,,,,,,,,,,,,,,,,,,,,,,,,,,,,,477.1167,477.6689,477.669,477.669,test,490.5518,490.552,479.1709,482.2691,green,stimuli/collisions/hit/stim5.mp4,k,2.7213,,TRUE,482.2704,487.1722,0,1,[0.5786999999880891],[0.5786999999880891],red,green,blue,0,100,487.1731,487.874,1,[487.88680000001193],[487.88680000001193],0,[],[],487.8742,490.5506,1.2187,445,FALSE,FALSE,490.5507,490.5508,,,,490.552,490.5524,,,,,,0,0,0,0,1,,,,,,,,,,,,,,,,,,,,,,,,,,,,,,,,,,
,,,,,5f2a5f187bf471245f7dc096,2026-02-02_14h17.13.556,causal,2025.1.1,Win32,60.24096386,,,,,,,,,,,,,,,,,,,,,,,,,,,,,,,,,,,,,,,,,,,,,,,,,,,,,,,,,,,,,,,,,,,,,,,,,,,,,,,,,,,,,,,,,20,0,20,0,1,,,,,,,,,,,,,,,,,,,,,,,,,,,,,
,,,,,5f2a5f187bf471245f7dc096,2026-02-02_14h17.13.556,causal,2025.1.1,Win32,60.24096386,,,,,,,,,,,,,,,,,,,,,,,,,,,,,,,,490.5526,491.0515,491.0515,491.0515,test,503.4646,503.4647,492.5632,496.198,green,stimuli/collisions/hit/stim15.mp4,k,3.2522,,TRUE,496.1997,500.075,100,1,[0.5359999999999445],[0.5359999999999445],red,green,blue,0,0,500.0759,500.9213,0,[],[],1,[500.9341999999881],[500.93429999998216],500.9214,503.4637,1.3878,475,TRUE,FALSE,503.4638,503.4639,,,,503.4647,503.4651,,,,,,0,0,0,0,1,,,,,,,,,,,,,,,,,,,,,,,,,,,,,,,,,,
,,,,,5f2a5f187bf471245f7dc096,2026-02-02_14h17.13.556,causal,2025.1.1,Win32,60.24096386,,,,,,,,,,,,,,,,,,,,,,,,,,,,,,,,,,,,,,,,,,,,,,,,,,,,,,,,,,,,,,,,,,,,,,,,,,,,,,,,,,,,,,,,,21,0,21,0,1,,,,,,,,,,,,,,,,,,,,,,,,,,,,,
,,,,,5f2a5f187bf471245f7dc096,2026-02-02_14h17.13.556,causal,2025.1.1,Win32,60.24096386,,,,,,,,,,,,,,,,,,,,,,,,,,,,,,,,503.4651,503.9737,503.9737,503.9737,test,515.7033,515.7034,505.4849,508.9537,red,stimuli/collisions/hit/stim17.mp4,j,3.0716,,TRUE,508.9552,512.6729,0,1,[0.3954000000059068],[0.3954000000059068],red,green,blue,0,100,512.6737,513.2884,0,[],[],1,[513.3011999999881],[513.3011999999881],513.2885,515.7027,1.2384,505,TRUE,FALSE,515.7027,515.7028,,,,515.7034,515.7037,,,,,,0,0,0,0,1,,,,,,,,,,,,,,,,,,,,,,,,,,,,,,,,,,
,,,,,5f2a5f187bf471245f7dc096,2026-02-02_14h17.13.556,causal,2025.1.1,Win32,60.24096386,,,,,,,,,,,,,,,,,,,,,,,,,,,,,,,,,,,,,,,,,,,,,,,,,,,,,,,,,,,,,,,,,,,,,,,,,,,,,,,,,,,,,,,,,22,0,22,0,1,,,,,,,,,,,,,,,,,,,,,,,,,,,,,
,,,,,5f2a5f187bf471245f7dc096,2026-02-02_14h17.13.556,causal,2025.1.1,Win32,60.24096386,,,,,,,,,,,,,,,,,,,,,,,,,,,,,,,,515.704,516.7401,516.7402,516.7402,catch,526.5845,526.5846,518.2511,522.7909,miss,stimuli/collisions/miss/stim6.mp4,space,4.1664,,TRUE,522.7922,522.7949,,0,[],[],red,green,blue,,,522.7955,524.0697,0,[],[],1,[524.0827999999821],[524.0827999999821],524.0699,526.5836,-0.1664,525,TRUE,FALSE,526.5837,526.5837,,,,526.5846,526.5849,,,,,,0,0,0,0,1,,,,,,,,,,,,,,,,,,,,,,,,,,,,,,,,,,
,,,,,5f2a5f187bf471245f7dc096,2026-02-02_14h17.13.556,causal,2025.1.1,Win32,60.24096386,,,,,,,,,,,,,,,,,,,,,,,,,,,,,,,,,,,,,,,,,,,,,,,,,,,,,,,,,,,,,,,,,,,,,,,,,,,,,,,,,,,,,,,,,23,0,23,0,1,,,,,,,,,,,,,,,,,,,,,,,,,,,,,
,,,,,5f2a5f187bf471245f7dc096,2026-02-02_14h17.13.556,causal,2025.1.1,Win32,60.24096386,,,,,,,,,,,,,,,,,,,,,,,,,,,,,,,,526.585,527.078,527.0782,527.0782,test,558.1054,559.1218,528.5918,530.7636,blue,stimuli/collisions/hit/stim16.mp4,f,1.7829,,TRUE,530.7658,534.4832,0,1,[0.6517999999821313],[0.6517999999821313],red,green,blue,100,0,534.4841,535.1286,0,[],[],1,[535.1415],[535.1415],535.1288,537.3758,1.0271,550,TRUE,TRUE,537.3758,541.1843,"[""space""]",[1.7845999999940432],[null],559.1219,559.9014,k,0.4165,,9,"[0.66,0.4,0.54,0.53,0.47,0.43,0.45,0.45,0.44,0.42]",9,0,9,0,1,,,,,,,,,,,,,,,,,,,,,,,,,,,,,,,,,,
,,,,,5f2a5f187bf471245f7dc096,2026-02-02_14h17.13.556,causal,2025.1.1,Win32,60.24096386,,,,,,,,,,,,,,,,,,,,,,,,,,,,,,,,,,,,,,,,,,,,,,,,,,,,,,,,,,,,,,,,,,,,,,,,,,,,,,,,,,,,,,,,,24,0,24,0,1,,,,,,,,,,,,,,,,,,,,,,,,,,,,,
,,,,,5f2a5f187bf471245f7dc096,2026-02-02_14h17.13.556,causal,2025.1.1,Win32,60.24096386,,,,,,,,,,,,,,,,,,,,,,,,,,,,,,,,559.9016,560.4707,560.4707,560.4708,test,572.2152,572.2152,561.9818,565.2726,blue,stimuli/collisions/hit/stim2.mp4,f,2.9116,,TRUE,565.2739,569.4111,0,1,[0.6519000000059805],[0.6519000000059805],red,green,blue,100,0,569.4122,570.0328,0,[],[],1,[570.045599999994],[570.045599999994],570.0329,572.2146,0.9984,575,TRUE,FALSE,572.2146,572.2146,,,,572.2153,572.2155,,,,,,0,0,0,0,1,,,,,,,,,,,,,,,,,,,,,,,,,,,,,,,,,,
,,,,,5f2a5f187bf471245f7dc096,2026-02-02_14h17.13.556,causal,2025.1.1,Win32,60.24096386,,,,,,,,,,,,,,,,,,,,,,,,,,,,,,,,,,,,,,,,,,,,,,,,,,,,,,,,,,,,,,,,,,,,,,,,,,,,,,,,,,,,,,,,,25,0,25,0,1,,,,,,,,,,,,,,,,,,,,,,,,,,,,,
,,,,,5f2a5f187bf471245f7dc096,2026-02-02_14h17.13.556,causal,2025.1.1,Win32,60.24096386,,,,,,,,,,,,,,,,,,,,,,,,,,,,,,,,572.2156,572.8043,572.8043,572.8043,catch,580.3385,580.3386,574.3115,577.0141,miss,stimuli/collisions/miss/stim3.mp4,space,2.3259,,TRUE,577.0157,577.0182,,0,[],[],red,green,blue,,,577.0189,577.9551,0,[],[],1,[577.968099999994],[577.968099999994],577.9553,580.3368,1.6741,605,TRUE,FALSE,580.3368,580.3369,,,,580.3386,580.339,,,,,,0,0,0,0,1,,,,,,,,,,,,,,,,,,,,,,,,,,,,,,,,,,
,,,,,5f2a5f187bf471245f7dc096,2026-02-02_14h17.13.556,causal,2025.1.1,Win32,60.24096386,,,,,,,,,,,,,,,,,,,,,,,,,,,,,,,,,,,,,,,,,,,,,,,,,,,,,,,,,,,,,,,,,,,,,,,,,,,,,,,,,,,,,,,,,26,0,26,0,1,,,,,,,,,,,,,,,,,,,,,,,,,,,,,
,,,,,5f2a5f187bf471245f7dc096,2026-02-02_14h17.13.556,causal,2025.1.1,Win32,60.24096386,,,,,,,,,,,,,,,,,,,,,,,,,,,,,,,,,,,,,,,,,,,,,,,,,,,,,,,,,,,,,,,,,,,,,,,,,,,,,,,,,,,,,,,,,,,,,,580.3392,584.5342,,,,,,,,,,,,,,,,,,,,,,,,,,,
,,,,,5f2a5f187bf471245f7dc096,2026-02-02_14h17.13.556,causal,2025.1.1,Win32,60.24096386,,,,,,,,,,,,,,,,,,,,,,,,,,,,,,,,,,,,,,,,,,,,,,,,,,,,,,,,,,,,,,,,,,,,,,,,,,,,,,,,,,,,,,,,,,,,,,,,584.5343,590.5584,,,,,,,,,,,,,,,,,,,,,,,,,
,,,,,5f2a5f187bf471245f7dc096,2026-02-02_14h17.13.556,causal,2025.1.1,Win32,60.24096386,,,,,,,,,,,,,,,,,,,,,,,,,,,,,,,,590.5597,591.2613,,,,591.262,592.7776,,,,stimuli/collisions/calibration/stim19.mp4,,,,,,,,,,,,,,,,,,,,,,,,,,,,,,,,,,,,,,,,,,,,,,,,,,,,,,,,591.2619,591.262,592.7783,595.8436,595.8443,596.5804,1,[596.582599999994],[596.582599999994],0,[],[],FALSE,FALSE,TRUE,596.5805,599.3301,"[""space""]",[1.7263000000119746],[null],0,0,0,0,1
,,,,,5f2a5f187bf471245f7dc096,2026-02-02_14h17.13.556,causal,2025.1.1,Win32,60.24096386,,,,,,,,,,,,,,,,,,,,,,,,,,,,,,,,599.3304,599.9612,,,,599.9615,601.4712,,,,stimuli/collisions/calibration/stim13.mp4,,,,,,,,,,,,,,,,,,,,,,,,,,,,,,,,,,,,,,,,,,,,,,,,,,,,,,,,599.9614,599.9615,601.4715,604.3993,604.4005,604.8194,0,[],[],1,[604.8218000000119],[604.8218000000119],TRUE,FALSE,FALSE,604.8194,606.225,"[""space""]",[0.381099999994035],[null],1,0,1,0,1
,,,,,5f2a5f187bf471245f7dc096,2026-02-02_14h17.13.556,causal,2025.1.1,Win32,60.24096386,,,,,,,,,,,,,,,,,,,,,,,,,,,,,,,,606.2253,606.7585,,,,606.7588,608.2677,,,,stimuli/collisions/calibration/stim7.mp4,,,,,,,,,,,,,,,,,,,,,,,,,,,,,,,,,,,,,,,,,,,,,,,,,,,,,,,,606.7588,606.7588,608.268,610.9357,610.9371,611.3454,0,[],[],1,[611.3478000000118],[611.3478000000118],TRUE,TRUE,TRUE,611.3455,612.7891,"[""space""]",[0.41080000001181816],[null],2,0,2,0,1
,,,,,5f2a5f187bf471245f7dc096,2026-02-02_14h17.13.556,causal,2025.1.1,Win32,60.24096386,,,,,,,,,,,,,,,,,,,,,,,,,,,,,,,,612.7894,613.3072,,,,613.3074,614.8258,,,,stimuli/collisions/calibration/stim14.mp4,,,,,,,,,,,,,,,,,,,,,,,,,,,,,,,,,,,,,,,,,,,,,,,,,,,,,,,,613.3073,613.3074,614.8263,618.2779,618.2794,618.7347,1,[618.7371999999881],[618.7371999999881],0,[],[],FALSE,FALSE,TRUE,618.7347,622.435,"[""space""]",[2.6778000000119846],[null],3,0,3,0,1
,,,,,5f2a5f187bf471245f7dc096,2026-02-02_14h17.13.556,causal,2025.1.1,Win32,60.24096386,,,,,,,,,,,,,,,,,,,,,,,,,,,,,,,,622.4353,622.9318,,,,622.9321,624.433,,,,stimuli/collisions/calibration/stim2.mp4,,,,,,,,,,,,,,,,,,,,,,,,,,,,,,,,,,,,,,,,,,,,,,,,,,,,,,,,622.932,622.932,624.4333,628.1272,628.1285,628.4372,1,[628.4397999999821],[628.4397999999821],0,[],[],FALSE,TRUE,FALSE,628.4373,629.9773,"[""space""]",[0.5248000000119646],[null],4,0,4,0,1
,,,,,5f2a5f187bf471245f7dc096,2026-02-02_14h17.13.556,causal,2025.1.1,Win32,60.24096386,,,,,,,,,,,,,,,,,,,,,,,,,,,,,,,,629.9776,630.4138,,,,630.4141,631.9289,,,,stimuli/collisions/calibration/stim9.mp4,,,,,,,,,,,,,,,,,,,,,,,,,,,,,,,,,,,,,,,,,,,,,,,,,,,,,,,,630.4139,630.414,631.9294,635.0226,635.0239,635.2766,1,[635.279],[635.279],0,[],[],FALSE,FALSE,TRUE,635.2767,636.7654,"[""space""]",[0.4675999999941496],[null],5,0,5,0,1
,,,,,5f2a5f187bf471245f7dc096,2026-02-02_14h17.13.556,causal,2025.1.1,Win32,60.24096386,,,,,,,,,,,,,,,,,,,,,,,,,,,,,,,,636.7658,637.1732,,,,637.1735,638.6843,,,,stimuli/collisions/calibration/stim4.mp4,,,,,,,,,,,,,,,,,,,,,,,,,,,,,,,,,,,,,,,,,,,,,,,,,,,,,,,,637.1734,637.1735,638.6849,641.4592,641.4618,642.1377,0,[],[],1,[642.1399000000059],[642.1399000000059],TRUE,TRUE,TRUE,642.1378,643.6319,"[""space""]",[0.47530000001188455],[null],6,0,6,0,1
,,,,,5f2a5f187bf471245f7dc096,2026-02-02_14h17.13.556,causal,2025.1.1,Win32,60.24096386,,,,,,,,,,,,,,,,,,,,,,,,,,,,,,,,643.6323,644.0781,,,,644.0783,645.5926,,,,stimuli/collisions/calibration/stim18.mp4,,,,,,,,,,,,,,,,,,,,,,,,,,,,,,,,,,,,,,,,,,,,,,,,,,,,,,,,644.0782,644.0783,645.593,648.9826,648.9837,649.3229,0,[],[],1,[649.3251999999881],[649.3251999999881],TRUE,FALSE,FALSE,649.3229,652.2066,"[""space""]",[1.85450000000003],[null],7,0,7,0,1
,,,,,5f2a5f187bf471245f7dc096,2026-02-02_14h17.13.556,causal,2025.1.1,Win32,60.24096386,,,,,,,,,,,,,,,,,,,,,,,,,,,,,,,,652.2068,652.6446,,,,652.6449,654.1515,,,,stimuli/collisions/calibration/stim20.mp4,,,,,,,,,,,,,,,,,,,,,,,,,,,,,,,,,,,,,,,,,,,,,,,,,,,,,,,,652.6448,652.6449,654.152,656.9268,656.9279,657.2071,0,[],[],1,[657.2094999999999],[657.2094999999999],TRUE,TRUE,TRUE,657.2072,658.8798,"[""space""]",[0.6558999999762136],[null],8,0,8,0,1
,,,,,5f2a5f187bf471245f7dc096,2026-02-02_14h17.13.556,causal,2025.1.1,Win32,60.24096386,,,,,,,,,,,,,,,,,,,,,,,,,,,,,,,,658.8801,659.3357,,,,659.3361,660.8521,,,,stimuli/collisions/calibration/stim6.mp4,,,,,,,,,,,,,,,,,,,,,,,,,,,,,,,,,,,,,,,,,,,,,,,,,,,,,,,,659.3361,659.3361,660.8526,663.5154,663.5166,663.8898,1,[663.8922999999821],[663.8922999999821],0,[],[],FALSE,FALSE,TRUE,663.8899,665.5378,"[""space""]",[0.6285999999940941],[null],9,0,9,0,1
,,,,,5f2a5f187bf471245f7dc096,2026-02-02_14h17.13.556,causal,2025.1.1,Win32,60.24096386,,,,,,,,,,,,,,,,,,,,,,,,,,,,,,,,665.5381,665.9326,,,,665.9327,667.4511,,,,stimuli/collisions/calibration/stim17.mp4,,,,,,,,,,,,,,,,,,,,,,,,,,,,,,,,,,,,,,,,,,,,,,,,,,,,,,,,665.9326,665.9327,667.4515,670.6481,670.6496,671.2131,0,[],[],1,[671.2154999999999],[671.2154999999999],TRUE,TRUE,TRUE,671.2132,673.9198,"[""space""]",[1.6815000000000282],[null],10,0,10,0,1
,,,,,5f2a5f187bf471245f7dc096,2026-02-02_14h17.13.556,causal,2025.1.1,Win32,60.24096386,,,,,,,,,,,,,,,,,,,,,,,,,,,,,,,,673.9201,674.4261,,,,674.4263,675.9288,,,,stimuli/collisions/calibration/stim12.mp4,,,,,,,,,,,,,,,,,,,,,,,,,,,,,,,,,,,,,,,,,,,,,,,,,,,,,,,,674.4263,674.4263,675.9291,678.7532,678.7546,679.216,0,[],[],1,[679.2183000000119],[679.2183000000119],TRUE,FALSE,FALSE,679.2161,682.9292,"[""space""]",[2.6947999999821377],[null],11,0,11,0,1
,,,,,5f2a5f187bf471245f7dc096,2026-02-02_14h17.13.556,causal,2025.1.1,Win32,60.24096386,,,,,,,,,,,,,,,,,,,,,,,,,,,,,,,,682.9295,683.4288,,,,683.4291,684.9467,,,,stimuli/collisions/calibration/stim3.mp4,,,,,,,,,,,,,,,,,,,,,,,,,,,,,,,,,,,,,,,,,,,,,,,,,,,,,,,,683.429,683.4291,684.9472,689.0793,689.0808,689.4682,0,[],[],1,[689.470699999988],[689.470699999988],TRUE,FALSE,FALSE,689.4683,690.8997,"[""space""]",[0.40310000002386914],[null],12,0,12,0,1
,,,,,5f2a5f187bf471245f7dc096,2026-02-02_14h17.13.556,causal,2025.1.1,Win32,60.24096386,,,,,,,,,,,,,,,,,,,,,,,,,,,,,,,,690.9,691.1665,,,,691.1668,692.671,,,,stimuli/collisions/calibration/stim11.mp4,,,,,,,,,,,,,,,,,,,,,,,,,,,,,,,,,,,,,,,,,,,,,,,,,,,,,,,,691.1667,691.1667,692.6715,695.5778,695.5798,696.0604,0,[],[],1,[696.062699999988],[696.062699999988],TRUE,TRUE,TRUE,696.0605,697.5482,"[""space""]",[0.46480000001201915],[null],13,0,13,0,1
,,,,,5f2a5f187bf471245f7dc096,2026-02-02_14h17.13.556,causal,2025.1.1,Win32,60.24096386,,,,,,,,,,,,,,,,,,,,,,,,,,,,,,,,697.5485,697.9402,,,,697.9406,699.4685,,,,stimuli/collisions/calibration/stim15.mp4,,,,,,,,,,,,,,,,,,,,,,,,,,,,,,,,,,,,,,,,,,,,,,,,,,,,,,,,697.9405,697.9406,699.4689,702.7787,702.7799,703.0787,1,[703.0811999999881],[703.0811999999881],0,[],[],FALSE,TRUE,FALSE,703.0788,704.6534,"[""space""]",[0.5469000000059623],[null],14,0,14,0,1
,,,,,5f2a5f187bf471245f7dc096,2026-02-02_14h17.13.556,causal,2025.1.1,Win32,60.24096386,,,,,,,,,,,,,,,,,,,,,,,,,,,,,,,,704.6537,705.1584,,,,705.1586,706.666,,,,stimuli/collisions/calibration/stim16.mp4,,,,,,,,,,,,,,,,,,,,,,,,,,,,,,,,,,,,,,,,,,,,,,,,,,,,,,,,705.1585,705.1586,706.6664,710.2846,710.2859,710.6397,1,[710.6421999999881],[710.6421999999881],0,[],[],FALSE,FALSE,TRUE,710.6397,712.7709,"[""space""]",[1.0967000000179041],[null],15,0,15,0,1
,,,,,5f2a5f187bf471245f7dc096,2026-02-02_14h17.13.556,causal,2025.1.1,Win32,60.24096386,,,,,,,,,,,,,,,,,,,,,,,,,,,,,,,,712.7712,713.3728,,,,713.3729,714.8904,,,,stimuli/collisions/calibration/stim5.mp4,,,,,,,,,,,,,,,,,,,,,,,,,,,,,,,,,,,,,,,,,,,,,,,,,,,,,,,,713.3729,713.3729,714.8908,719.0901,719.0916,719.3937,1,[719.3961999999881],[719.3961999999881],0,[],[],FALSE,FALSE,TRUE,719.3938,720.8577,"[""space""]",[0.4350000000000591],[null],16,0,16,0,1
,,,,,5f2a5f187bf471245f7dc096,2026-02-02_14h17.13.556,causal,2025.1.1,Win32,60.24096386,,,,,,,,,,,,,,,,,,,,,,,,,,,,,,,,720.8581,721.3564,,,,721.3567,722.8589,,,,stimuli/collisions/calibration/stim8.mp4,,,,,,,,,,,,,,,,,,,,,,,,,,,,,,,,,,,,,,,,,,,,,,,,,,,,,,,,721.3565,721.3567,722.8592,726.3946,726.3959,726.8949,0,[],[],1,[726.8973000000119],[726.8973000000119],TRUE,FALSE,FALSE,726.8951,728.5407,"[""space""]",[0.6289000000059559],[null],17,0,17,0,1
,,,,,5f2a5f187bf471245f7dc096,2026-02-02_14h17.13.556,causal,2025.1.1,Win32,60.24096386,,,,,,,,,,,,,,,,,,,,,,,,,,,,,,,,728.5411,728.9663,,,,728.9665,730.478,,,,stimuli/collisions/calibration/stim10.mp4,,,,,,,,,,,,,,,,,,,,,,,,,,,,,,,,,,,,,,,,,,,,,,,,,,,,,,,,728.9665,728.9665,730.4783,733.2371,733.2385,733.5577,0,[],[],1,[733.56],[733.56],TRUE,TRUE,TRUE,733.5577,735.0118,"[""space""]",[0.42290000000593864],[null],18,0,18,0,1
,,,,,5f2a5f187bf471245f7dc096,2026-02-02_14h17.13.556,causal,2025.1.1,Win32,60.24096386,,,,,,,,,,,,,,,,,,,,,,,,,,,,,,,,735.0122,735.4862,,,,735.4863,736.9942,,,,stimuli/collisions/calibration/stim1.mp4,,,,,,,,,,,,,,,,,,,,,,,,,,,,,,,,,,,,,,,,,,,,,,,,,,,,,,,,735.4863,735.4863,736.9946,740.3221,740.3234,740.6541,0,[],[],1,[740.6564999999999],[740.6564999999999],TRUE,FALSE,FALSE,740.6542,742.1551,"[""space""]",[0.47649999999998727],[null],19,0,19,0,1
