intro.started,intro.stopped,button_6.numClicks,button_6.timesOn,button_6.timesOff,participant,date,expName,psychopyVersion,OS,frameRate,timing_info.started,timing_info.stopped,button_7.numClicks,button_7.timesOn,button_7.timesOff,hand_positions.started,hand_positions.stopped,space_bar.keys,space_bar.rt,space_bar.duration,train_keys.started,train_keys.stopped,key_resp.keys,key_resp.rt,key_resp.duration,score.started,score.stopped,training_rounds,training.thisRepN,training.thisTrialN,training.thisN,training.thisIndex,training.ran,test_instruct.started,test_instruct.stopped,instruct_cont.started,instruct_cont.stopped,point_instruct.started,point_instruct.stopped,accident_instruct.started,accident_instruct.stopped,advance.started,advance.stopped,flip_video.started,flip_video.stopped,trial_type,buffer.started,buffer.stopped,collision.started,collision.stopped,selection,stimuli_path,select_resp.keys,select_resp.rt,select_resp.duration,resp_trial,responsibility.started,responsibility.stopped,conf_2.response,button.numClicks,button.timesOn,button.timesOff,conf_one,conf_two,conf_three,conf_3.response,conf_1.response,forfeit.started,forfeit.stopped,forfeit_button.numClicks,forfeit_button.timesOn,forfeit_button.timesOff,keep_button.numClicks,keep_button.timesOn,keep_button.timesOff,accuracy.started,accuracy.stopped,rt_diff,acc_points,keep_round,practice_round,begin_review.started,begin_review.stopped,space_bar_6.keys,space_bar_6.rt,space_bar_6.duration,review_keys.started,review_keys.stopped,key_resp_2.keys,key_resp_2.rt,key_resp_2.duration,review_trials,baseline_rts,review.thisRepN,review.thisTrialN,review.thisN,review.thisIndex,review.ran,trials.thisRepN,trials.thisTrialN,trials.thisN,trials.thisIndex,trials.ran,transition.started,transition.stopped,calibrate_instruct.started,calibrate_instruct.stopped,flip_calibration.started,flip_calibration.stopped,calibrate.started,calibrate.stopped,prediction.started,prediction.stopped,miss.numClicks,miss.timesOn,miss.timesOff,hit.numClicks,hit.timesOn,hit.timesOff,calibration_pred,calibration_actual,calibration_score,cal_feedback.started,cal_feedback.stopped,space_bar_12.keys,space_bar_12.rt,space_bar_12.duration,calibration.thisRepN,calibration.thisTrialN,calibration.thisN,calibration.thisIndex,calibration.ran
0.0007,137.0656,1,[132.0657999999523],[132.0657999999523],63c3599c8a16601b603d421c,2026-02-02_11h12.57.717,causal,2025.1.1,Win32,11.99040767,,,,,,,,,,,,,,,,,,,,,,,,,,,,,,,,,,,,,,,,,,,,,,,,,,,,,,,,,,,,,,,,,,,,,,,,,,,,,,,,,,,,,,,,,,,,,,,,,,,,,,,,,,,,,,,,,,,,,,,,,,
,,,,,63c3599c8a16601b603d421c,2026-02-02_11h12.57.717,causal,2025.1.1,Win32,11.99040767,137.066,144.0957,1,[2.0688999999761677],[2.0688999999761677],,,,,,,,,,,,,,,,,,,,,,,,,,,,,,,,,,,,,,,,,,,,,,,,,,,,,,,,,,,,,,,,,,,,,,,,,,,,,,,,,,,,,,,,,,,,,,,,,,,,,,,,,,,,,,,,,,,,,
,,,,,63c3599c8a16601b603d421c,2026-02-02_11h12.57.717,causal,2025.1.1,Win32,11.99040767,,,,,,144.096,173.7935,"[""space"",""space""]","[7.81680000007151,26.370100000023797]","[null,null]",,,,,,,,,,,,,,,,,,,,,,,,,,,,,,,,,,,,,,,,,,,,,,,,,,,,,,,,,,,,,,,,,,,,,,,,,,,,,,,,,,,,,,,,,,,,,,,,,,,,,,,,,,,,,,,,
,,,,,63c3599c8a16601b603d421c,2026-02-02_11h12.57.717,causal,2025.1.1,Win32,11.99040767,,,,,,,,,,,258.0053,259.2674,space,0.6349,,259.2679,267.6297,1,0,0,0,0,1,,,,,,,,,,,,,,,,,,,,,,,,,,,,,,,,,,,,,,,,,,,,,,,,,,,,,,,,,,,,,,,,,,,,,,,,,,,,,,,,,,,,,,,,,,,,,,,,,,,
,,,,,63c3599c8a16601b603d421c,2026-02-02_11h12.57.717,causal,2025.1.1,Win32,11.99040767,,,,,,,,,,,,,,,,,,,,,,,,267.6309,290.3966,,,,,,,,,,,,,,,,,,,,,,,,,,,,,,,,,,,,,,,,,,,,,,,,,,,,,,,,,,,,,,,,,,,,,,,,,,,,,,,,,,,,,,,,,,,,,,,,,
,,,,,63c3599c8a16601b603d421c,2026-02-02_11h12.57.717,causal,2025.1.1,Win32,11.99040767,,,,,,,,,,,,,,,,,,,,,,,,,,290.397,300.3321,,,,,,,,,,,,,,,,,,,,,,,,,,,,,,,,,,,,,,,,,,,,,,,,,,,,,,,,,,,,,,,,,,,,,,,,,,,,,,,,,,,,,,,,,,,,,,,
,,,,,63c3599c8a16601b603d421c,2026-02-02_11h12.57.717,causal,2025.1.1,Win32,11.99040767,,,,,,,,,,,,,,,,,,,,,,,,,,,,300.3325,323.5669,,,,,,,,,,,,,,,,,,,,,,,,,,,,,,,,,,,,,,,,,,,,,,,,,,,,,,,,,,,,,,,,,,,,,,,,,,,,,,,,,,,,,,,,,,,,,
,,,,,63c3599c8a16601b603d421c,2026-02-02_11h12.57.717,causal,2025.1.1,Win32,11.99040767,,,,,,,,,,,,,,,,,,,,,,,,,,,,,,323.567,328.743,,,,,,,,,,,,,,,,,,,,,,,,,,,,,,,,,,,,,,,,,,,,,,,,,,,,,,,,,,,,,,,,,,,,,,,,,,,,,,,,,,,,,,,,,,,
,,,,,63c3599c8a16601b603d421c,2026-02-02_11h12.57.717,causal,2025.1.1,Win32,11.99040767,,,,,,,,,,,,,,,,,,,,,,,,,,,,,,,,328.7461,330.5299,330.5302,330.5304,train,402.4834,403.5797,332.0359,335.6192,green,stimuli/collisions/training/stim1.mp4,j,3.0067,,TRUE,335.624,366.0124,21,1,[10.220500000000015],[10.220500000000015],red,green,blue,40,85,366.0127,372.3834,1,[372.42939999997617],[372.42939999997617],0,[],[],372.3845,377.4297,1.5566,-5,FALSE,TRUE,377.4299,381.7927,"[""space""]",[2.257399999976087],[null],403.5798,404.9413,f,0.7644,,9,"[0.79,0.79,0.72,0.64,0.72,0.94,0.64,0.64,0.62,0.76]",9,0,9,0,1,,,,,,,,,,,,,,,,,,,,,,,,,,,,,,,,,,
,,,,,63c3599c8a16601b603d421c,2026-02-02_11h12.57.717,causal,2025.1.1,Win32,11.99040767,,,,,,,,,,,,,,,,,,,,,,,,,,,,,,,,,,,,,,,,,,,,,,,,,,,,,,,,,,,,,,,,,,,,,,,,,,,,,,,,,,,,,,,,,0,0,0,0,1,,,,,,,,,,,,,,,,,,,,,,,,,,,,,
,,,,,63c3599c8a16601b603d421c,2026-02-02_11h12.57.717,causal,2025.1.1,Win32,11.99040767,,,,,,,,,,,,,,,,,,,,,,,,,,,,,,,,404.9423,405.8043,405.8044,405.8044,train,428.3752,428.3753,407.38,413.6901,miss,stimuli/collisions/training/stim2.mp4,space,5.6914,,TRUE,413.6955,413.7095,,0,[],[],red,green,blue,,,413.7115,416.4475,0,[],[],1,[416.4927999999523],[416.4927999999523],416.4483,428.3731,-1.6914,15,TRUE,FALSE,428.3731,428.3732,,,,428.3754,428.3771,,,,,,0,0,0,0,1,,,,,,,,,,,,,,,,,,,,,,,,,,,,,,,,,,
,,,,,63c3599c8a16601b603d421c,2026-02-02_11h12.57.717,causal,2025.1.1,Win32,11.99040767,,,,,,,,,,,,,,,,,,,,,,,,,,,,,,,,,,,,,,,,,,,,,,,,,,,,,,,,,,,,,,,,,,,,,,,,,,,,,,,,,,,,,,,,,1,0,1,0,1,,,,,,,,,,,,,,,,,,,,,,,,,,,,,
,,,,,63c3599c8a16601b603d421c,2026-02-02_11h12.57.717,causal,2025.1.1,Win32,11.99040767,,,,,,,,,,,,,,,,,,,,,,,,,,,,,,,,428.3778,429.1614,429.1614,429.1615,train,478.2325,478.2326,430.742,434.9195,green,stimuli/collisions/training/stim3.mp4,k,3.5066,,TRUE,434.9227,465.848,90,1,[23.008899999976165],[23.008899999976165],red,green,blue,5,4,465.85,467.5057,0,[],[],1,[467.5502999999523],[467.5502999999523],467.5063,478.2302,-0.2366,35,TRUE,FALSE,478.2303,478.2303,,,,478.2327,478.2344,,,,,,0,0,0,0,1,,,,,,,,,,,,,,,,,,,,,,,,,,,,,,,,,,
,,,,,63c3599c8a16601b603d421c,2026-02-02_11h12.57.717,causal,2025.1.1,Win32,11.99040767,,,,,,,,,,,,,,,,,,,,,,,,,,,,,,,,,,,,,,,,,,,,,,,,,,,,,,,,,,,,,,,,,,,,,,,,,,,,,,,,,,,,,,,,,2,0,2,0,1,,,,,,,,,,,,,,,,,,,,,,,,,,,,,
,,,,,63c3599c8a16601b603d421c,2026-02-02_11h12.57.717,causal,2025.1.1,Win32,11.99040767,,,,,,,,,,,,,,,,,,,,,,,,,,,,,,,,478.2351,481.7207,481.7209,481.721,test,507.4758,507.476,483.2374,489.0437,red,stimuli/collisions/hit/stim17.mp4,j,5.1905,,TRUE,489.049,502.7565,5,1,[3.2632999999523236],[3.2632999999523236],red,green,blue,3,80,502.7584,503.7921,0,[],[],1,[503.8366999999285],[503.8366999999285],503.7927,507.4737,-0.8805,55,TRUE,FALSE,507.4737,507.4738,,,,507.476,507.4778,,,,,,0,0,0,0,1,,,,,,,,,,,,,,,,,,,,,,,,,,,,,,,,,,
,,,,,63c3599c8a16601b603d421c,2026-02-02_11h12.57.717,causal,2025.1.1,Win32,11.99040767,,,,,,,,,,,,,,,,,,,,,,,,,,,,,,,,,,,,,,,,,,,,,,,,,,,,,,,,,,,,,,,,,,,,,,,,,,,,,,,,,,,,,,,,,3,0,3,0,1,,,,,,,,,,,,,,,,,,,,,,,,,,,,,
,,,,,63c3599c8a16601b603d421c,2026-02-02_11h12.57.717,causal,2025.1.1,Win32,11.99040767,,,,,,,,,,,,,,,,,,,,,,,,,,,,,,,,507.4786,508.3379,508.338,508.338,test,538.244,538.2441,509.9215,516.1077,blue,stimuli/collisions/hit/stim16.mp4,f,5.5694,,TRUE,516.113,530.728,7,1,[1.8379000000953738],[1.8379999999999654],red,green,blue,91,7,530.7298,531.936,0,[],[],1,[531.9804999999999],[531.9804999999999],531.9366,538.2418,-2.7594,75,TRUE,FALSE,538.2418,538.2419,,,,538.2442,538.2459,,,,,,0,0,0,0,1,,,,,,,,,,,,,,,,,,,,,,,,,,,,,,,,,,
,,,,,63c3599c8a16601b603d421c,2026-02-02_11h12.57.717,causal,2025.1.1,Win32,11.99040767,,,,,,,,,,,,,,,,,,,,,,,,,,,,,,,,,,,,,,,,,,,,,,,,,,,,,,,,,,,,,,,,,,,,,,,,,,,,,,,,,,,,,,,,,4,0,4,0,1,,,,,,,,,,,,,,,,,,,,,,,,,,,,,
,,,,,63c3599c8a16601b603d421c,2026-02-02_11h12.57.717,causal,2025.1.1,Win32,11.99040767,,,,,,,,,,,,,,,,,,,,,,,,,,,,,,,,538.2467,539.0281,539.0282,539.0282,test,565.8404,565.8405,540.6092,548.4788,blue,stimuli/collisions/hit/stim2.mp4,f,7.2555,,TRUE,548.4841,561.5602,0,1,[2.6435000000000173],[2.6435000000000173],red,green,blue,94,0,561.5621,562.5134,0,[],[],1,[562.5580999999046],[562.5580999999046],562.5141,565.8385,-3.3455,95,TRUE,FALSE,565.8385,565.8386,,,,565.8407,565.8422,,,,,,0,0,0,0,1,,,,,,,,,,,,,,,,,,,,,,,,,,,,,,,,,,
,,,,,63c3599c8a16601b603d421c,2026-02-02_11h12.57.717,causal,2025.1.1,Win32,11.99040767,,,,,,,,,,,,,,,,,,,,,,,,,,,,,,,,,,,,,,,,,,,,,,,,,,,,,,,,,,,,,,,,,,,,,,,,,,,,,,,,,,,,,,,,,5,0,5,0,1,,,,,,,,,,,,,,,,,,,,,,,,,,,,,
,,,,,63c3599c8a16601b603d421c,2026-02-02_11h12.57.717,causal,2025.1.1,Win32,11.99040767,,,,,,,,,,,,,,,,,,,,,,,,,,,,,,,,565.8429,566.7062,566.7062,566.7063,test,589.98,589.9802,568.2771,573.8591,red,stimuli/collisions/hit/stim1.mp4,j,4.9677,,TRUE,573.8644,585.8968,2,1,[2.155700000047773],[2.155700000047773],red,green,blue,2,94,585.8986,587.1117,0,[],[],1,[587.1561999999284],[587.1561999999284],587.1123,589.9779,-1.5977,115,TRUE,FALSE,589.9779,589.9781,,,,589.9802,589.9818,,,,,,0,0,0,0,1,,,,,,,,,,,,,,,,,,,,,,,,,,,,,,,,,,
,,,,,63c3599c8a16601b603d421c,2026-02-02_11h12.57.717,causal,2025.1.1,Win32,11.99040767,,,,,,,,,,,,,,,,,,,,,,,,,,,,,,,,,,,,,,,,,,,,,,,,,,,,,,,,,,,,,,,,,,,,,,,,,,,,,,,,,,,,,,,,,6,0,6,0,1,,,,,,,,,,,,,,,,,,,,,,,,,,,,,
,,,,,63c3599c8a16601b603d421c,2026-02-02_11h12.57.717,causal,2025.1.1,Win32,11.99040767,,,,,,,,,,,,,,,,,,,,,,,,,,,,,,,,589.9826,590.6966,590.6967,590.6967,test,615.5032,615.5033,592.2161,599.3577,green,stimuli/collisions/hit/stim7.mp4,k,6.512,,TRUE,599.3628,612.02,100,1,[1.4071000000238882],[1.4071000000238882],red,green,blue,0,0,612.0218,613.0432,0,[],[],1,[613.0876999999284],[613.0876999999284],613.0437,615.5013,-3.242,135,TRUE,FALSE,615.5013,615.5013,,,,615.5033,615.5049,,,,,,0,0,0,0,1,,,,,,,,,,,,,,,,,,,,,,,,,,,,,,,,,,
,,,,,63c3599c8a16601b603d421c,2026-02-02_11h12.57.717,causal,2025.1.1,Win32,11.99040767,,,,,,,,,,,,,,,,,,,,,,,,,,,,,,,,,,,,,,,,,,,,,,,,,,,,,,,,,,,,,,,,,,,,,,,,,,,,,,,,,,,,,,,,,7,0,7,0,1,,,,,,,,,,,,,,,,,,,,,,,,,,,,,
,,,,,63c3599c8a16601b603d421c,2026-02-02_11h12.57.717,causal,2025.1.1,Win32,11.99040767,,,,,,,,,,,,,,,,,,,,,,,,,,,,,,,,615.5056,616.0535,616.0536,616.0536,test,664.6744,665.6993,617.6342,624.6549,blue,stimuli/collisions/hit/stim8.mp4,f,6.4092,,TRUE,624.6602,635.7007,0,1,[2.5413000000714874],[2.5413000000714874],red,green,blue,94,0,635.7026,636.8553,0,[],[],1,[636.8996999999284],[636.8996999999284],636.8558,640.5587,-3.0692,155,TRUE,TRUE,640.5587,644.0355,"[""space""]",[1.3857999999523827],[null],665.6994,667.056,f,0.803,,9,"[0.88,0.73,0.56,0.57,0.57,0.65,1.04,0.57,0.64,0.8]",9,0,9,0,1,,,,,,,,,,,,,,,,,,,,,,,,,,,,,,,,,,
,,,,,63c3599c8a16601b603d421c,2026-02-02_11h12.57.717,causal,2025.1.1,Win32,11.99040767,,,,,,,,,,,,,,,,,,,,,,,,,,,,,,,,,,,,,,,,,,,,,,,,,,,,,,,,,,,,,,,,,,,,,,,,,,,,,,,,,,,,,,,,,8,0,8,0,1,,,,,,,,,,,,,,,,,,,,,,,,,,,,,
,,,,,63c3599c8a16601b603d421c,2026-02-02_11h12.57.717,causal,2025.1.1,Win32,11.99040767,,,,,,,,,,,,,,,,,,,,,,,,,,,,,,,,667.0568,668.2394,668.2396,668.2396,test,696.0442,696.0444,669.8164,676.3521,green,stimuli/collisions/hit/stim15.mp4,k,5.9235,,TRUE,676.3578,691.3859,90,1,[1.9956000000238419],[1.9956000000238419],red,green,blue,2,2,691.3876,692.4474,0,[],[],1,[692.492],[692.492],692.4494,696.0424,-1.2835,175,TRUE,FALSE,696.0424,696.0425,,,,696.0445,696.0458,,,,,,0,0,0,0,1,,,,,,,,,,,,,,,,,,,,,,,,,,,,,,,,,,
,,,,,63c3599c8a16601b603d421c,2026-02-02_11h12.57.717,causal,2025.1.1,Win32,11.99040767,,,,,,,,,,,,,,,,,,,,,,,,,,,,,,,,,,,,,,,,,,,,,,,,,,,,,,,,,,,,,,,,,,,,,,,,,,,,,,,,,,,,,,,,,9,0,9,0,1,,,,,,,,,,,,,,,,,,,,,,,,,,,,,
,,,,,63c3599c8a16601b603d421c,2026-02-02_11h12.57.717,causal,2025.1.1,Win32,11.99040767,,,,,,,,,,,,,,,,,,,,,,,,,,,,,,,,696.0465,696.7506,696.7507,696.7507,catch,709.0991,709.0993,698.2536,704.3537,miss,stimuli/collisions/miss/stim3.mp4,space,5.4855,,TRUE,704.359,704.371,,0,[],[],red,green,blue,,,704.3728,706.4264,0,[],[],1,[706.4716999999284],[706.4716999999284],706.4269,709.0974,-1.4855,195,TRUE,FALSE,709.0974,709.0975,,,,709.0993,709.101,,,,,,0,0,0,0,1,,,,,,,,,,,,,,,,,,,,,,,,,,,,,,,,,,
,,,,,63c3599c8a16601b603d421c,2026-02-02_11h12.57.717,causal,2025.1.1,Win32,11.99040767,,,,,,,,,,,,,,,,,,,,,,,,,,,,,,,,,,,,,,,,,,,,,,,,,,,,,,,,,,,,,,,,,,,,,,,,,,,,,,,,,,,,,,,,,10,0,10,0,1,,,,,,,,,,,,,,,,,,,,,,,,,,,,,
,,,,,63c3599c8a16601b603d421c,2026-02-02_11h12.57.717,causal,2025.1.1,Win32,11.99040767,,,,,,,,,,,,,,,,,,,,,,,,,,,,,,,,709.1017,709.8092,709.8093,709.8093,test,733.2289,733.229,711.3689,718.2193,blue,stimuli/collisions/hit/stim18.mp4,f,6.3382,,TRUE,718.225,729.4706,2,1,[1.2792999999522863],[1.2792999999522863],red,green,blue,97,3,729.4724,730.3596,0,[],[],1,[730.404399999976],[730.404399999976],730.3598,733.227,-3.1982,215,TRUE,FALSE,733.227,733.2271,,,,733.229,733.2304,,,,,,0,0,0,0,1,,,,,,,,,,,,,,,,,,,,,,,,,,,,,,,,,,
,,,,,63c3599c8a16601b603d421c,2026-02-02_11h12.57.717,causal,2025.1.1,Win32,11.99040767,,,,,,,,,,,,,,,,,,,,,,,,,,,,,,,,,,,,,,,,,,,,,,,,,,,,,,,,,,,,,,,,,,,,,,,,,,,,,,,,,,,,,,,,,11,0,11,0,1,,,,,,,,,,,,,,,,,,,,,,,,,,,,,
,,,,,63c3599c8a16601b603d421c,2026-02-02_11h12.57.717,causal,2025.1.1,Win32,11.99040767,,,,,,,,,,,,,,,,,,,,,,,,,,,,,,,,733.2311,734.2528,734.2529,734.2529,test,755.602,755.6021,735.7668,742.6661,red,stimuli/collisions/hit/stim11.mp4,j,6.2891,,TRUE,742.6714,750.536,2,1,[2.1233000000715947],[2.1233000000715947],red,green,blue,1,94,750.5377,751.8994,0,[],[],1,[751.9438999999761],[751.9438999999761],751.8999,755.6002,-2.7191,235,TRUE,FALSE,755.6003,755.6004,,,,755.6022,755.6051,,,,,,0,0,0,0,1,,,,,,,,,,,,,,,,,,,,,,,,,,,,,,,,,,
,,,,,63c3599c8a16601b603d421c,2026-02-02_11h12.57.717,causal,2025.1.1,Win32,11.99040767,,,,,,,,,,,,,,,,,,,,,,,,,,,,,,,,,,,,,,,,,,,,,,,,,,,,,,,,,,,,,,,,,,,,,,,,,,,,,,,,,,,,,,,,,12,0,12,0,1,,,,,,,,,,,,,,,,,,,,,,,,,,,,,
,,,,,63c3599c8a16601b603d421c,2026-02-02_11h12.57.717,causal,2025.1.1,Win32,11.99040767,,,,,,,,,,,,,,,,,,,,,,,,,,,,,,,,755.6059,756.1649,756.165,756.1651,catch,769.6775,769.6777,757.6792,765.2358,miss,stimuli/collisions/miss/stim5.mp4,space,7.0113,,TRUE,765.2375,765.2432,,0,[],[],red,green,blue,,,765.2449,766.7528,0,[],[],1,[766.7980999999046],[766.7980999999046],766.7534,769.6756,-3.0113,255,TRUE,FALSE,769.6756,769.6758,,,,769.6777,769.6792,,,,,,0,0,0,0,1,,,,,,,,,,,,,,,,,,,,,,,,,,,,,,,,,,
,,,,,63c3599c8a16601b603d421c,2026-02-02_11h12.57.717,causal,2025.1.1,Win32,11.99040767,,,,,,,,,,,,,,,,,,,,,,,,,,,,,,,,,,,,,,,,,,,,,,,,,,,,,,,,,,,,,,,,,,,,,,,,,,,,,,,,,,,,,,,,,13,0,13,0,1,,,,,,,,,,,,,,,,,,,,,,,,,,,,,
,,,,,63c3599c8a16601b603d421c,2026-02-02_11h12.57.717,causal,2025.1.1,Win32,11.99040767,,,,,,,,,,,,,,,,,,,,,,,,,,,,,,,,769.6799,770.883,770.883,770.883,test,806.7652,807.7915,772.4297,780.429,timeout,stimuli/collisions/hit/stim5.mp4,j,7.8988,,TRUE,780.4342,780.4454,,0,[],[],red,green,blue,,,780.4472,780.4484,0,[],[],0,[],[],780.4488,783.277,-4.0606,205,TRUE,TRUE,783.277,785.9941,"[""space""]",[0.5907999999523099],[null],807.7917,808.9064,j,0.5663,,9,"[0.65,0.66,0.58,1.06,0.73,0.65,0.65,0.64,0.8,0.57]",9,0,9,0,1,,,,,,,,,,,,,,,,,,,,,,,,,,,,,,,,,,
,,,,,63c3599c8a16601b603d421c,2026-02-02_11h12.57.717,causal,2025.1.1,Win32,11.99040767,,,,,,,,,,,,,,,,,,,,,,,,,,,,,,,,,,,,,,,,,,,,,,,,,,,,,,,,,,,,,,,,,,,,,,,,,,,,,,,,,,,,,,,,,14,0,14,0,1,,,,,,,,,,,,,,,,,,,,,,,,,,,,,
,,,,,63c3599c8a16601b603d421c,2026-02-02_11h12.57.717,causal,2025.1.1,Win32,11.99040767,,,,,,,,,,,,,,,,,,,,,,,,,,,,,,,,808.9072,809.8465,809.8466,809.8466,test,828.9389,828.939,811.4241,817.1183,red,stimuli/collisions/hit/stim6.mp4,j,5.0764,,TRUE,817.1236,824.0614,3,1,[1.25679999995225],[1.25679999995225],red,green,blue,4,94,824.0632,824.8663,0,[],[],1,[824.911],[824.911],824.8669,828.9371,-1.8364,225,TRUE,FALSE,828.9371,828.9371,,,,828.9391,828.9407,,,,,,0,0,0,0,1,,,,,,,,,,,,,,,,,,,,,,,,,,,,,,,,,,
,,,,,63c3599c8a16601b603d421c,2026-02-02_11h12.57.717,causal,2025.1.1,Win32,11.99040767,,,,,,,,,,,,,,,,,,,,,,,,,,,,,,,,,,,,,,,,,,,,,,,,,,,,,,,,,,,,,,,,,,,,,,,,,,,,,,,,,,,,,,,,,15,0,15,0,1,,,,,,,,,,,,,,,,,,,,,,,,,,,,,
,,,,,63c3599c8a16601b603d421c,2026-02-02_11h12.57.717,causal,2025.1.1,Win32,11.99040767,,,,,,,,,,,,,,,,,,,,,,,,,,,,,,,,828.9414,829.4954,829.4954,829.4954,catch,904.2727,905.2991,831.0728,837.0721,miss,stimuli/collisions/miss/stim1.mp4,space,5.382,,TRUE,837.0771,837.0896,,0,[],[],red,green,blue,,,837.0912,838.8228,0,[],[],1,[838.8680999999045],[838.8680999999045],838.8234,842.7866,-1.382,245,TRUE,TRUE,842.7867,848.0599,"[""space""]",[3.177299999952311],[null],905.2992,906.6433,k,0.7959,,24,"[0.64,0.65,0.64,0.49,0.49,0.65,0.72,0.65,0.64,0.64,0.49,0.56,0.64,0.49,0.49,0.81,0.64,0.8]",24,0,24,0,1,,,,,,,,,,,,,,,,,,,,,,,,,,,,,,,,,,
,,,,,63c3599c8a16601b603d421c,2026-02-02_11h12.57.717,causal,2025.1.1,Win32,11.99040767,,,,,,,,,,,,,,,,,,,,,,,,,,,,,,,,,,,,,,,,,,,,,,,,,,,,,,,,,,,,,,,,,,,,,,,,,,,,,,,,,,,,,,,,,16,0,16,0,1,,,,,,,,,,,,,,,,,,,,,,,,,,,,,
,,,,,63c3599c8a16601b603d421c,2026-02-02_11h12.57.717,causal,2025.1.1,Win32,11.99040767,,,,,,,,,,,,,,,,,,,,,,,,,,,,,,,,906.6451,907.5008,907.5009,907.5009,test,928.3862,928.3863,909.0728,916.1817,blue,stimuli/collisions/hit/stim4.mp4,f,6.4954,,TRUE,916.187,924.2539,6,1,[1.1146999999284617],[1.1146999999284617],red,green,blue,90,4,924.2557,925.0343,0,[],[],1,[925.0776999999283],[925.0776999999283],925.035,928.3844,-2.4854,265,TRUE,FALSE,928.3845,928.3846,,,,928.3864,928.388,,,,,,0,0,0,0,1,,,,,,,,,,,,,,,,,,,,,,,,,,,,,,,,,,
,,,,,63c3599c8a16601b603d421c,2026-02-02_11h12.57.717,causal,2025.1.1,Win32,11.99040767,,,,,,,,,,,,,,,,,,,,,,,,,,,,,,,,,,,,,,,,,,,,,,,,,,,,,,,,,,,,,,,,,,,,,,,,,,,,,,,,,,,,,,,,,17,0,17,0,1,,,,,,,,,,,,,,,,,,,,,,,,,,,,,
,,,,,63c3599c8a16601b603d421c,2026-02-02_11h12.57.717,causal,2025.1.1,Win32,11.99040767,,,,,,,,,,,,,,,,,,,,,,,,,,,,,,,,928.3888,928.9317,928.9317,928.9318,test,945.7643,945.7645,930.5031,936.027,red,stimuli/collisions/hit/stim14.mp4,j,4.9135,,TRUE,936.0324,942.5627,5,1,[1.176799999952209],[1.176799999952209],red,green,blue,2,94,942.5644,943.3662,0,[],[],1,[943.4107999999522],[943.4107999999522],943.3668,945.7626,-1.9735,285,TRUE,FALSE,945.7626,945.7627,,,,945.7645,945.7661,,,,,,0,0,0,0,1,,,,,,,,,,,,,,,,,,,,,,,,,,,,,,,,,,
,,,,,63c3599c8a16601b603d421c,2026-02-02_11h12.57.717,causal,2025.1.1,Win32,11.99040767,,,,,,,,,,,,,,,,,,,,,,,,,,,,,,,,,,,,,,,,,,,,,,,,,,,,,,,,,,,,,,,,,,,,,,,,,,,,,,,,,,,,,,,,,18,0,18,0,1,,,,,,,,,,,,,,,,,,,,,,,,,,,,,
,,,,,63c3599c8a16601b603d421c,2026-02-02_11h12.57.717,causal,2025.1.1,Win32,11.99040767,,,,,,,,,,,,,,,,,,,,,,,,,,,,,,,,945.7668,946.6286,946.6287,946.6288,test,963.4162,963.4164,948.197,953.4182,green,stimuli/collisions/hit/stim3.mp4,k,4.5971,,TRUE,953.4235,960.029,95,1,[0.8090999999046744],[0.8090999999046744],red,green,blue,3,6,960.0317,960.87,0,[],[],1,[960.9145999999045],[960.9145999999045],960.8706,963.4143,-1.2571,305,TRUE,FALSE,963.4144,963.4145,,,,963.4164,963.418,,,,,,0,0,0,0,1,,,,,,,,,,,,,,,,,,,,,,,,,,,,,,,,,,
,,,,,63c3599c8a16601b603d421c,2026-02-02_11h12.57.717,causal,2025.1.1,Win32,11.99040767,,,,,,,,,,,,,,,,,,,,,,,,,,,,,,,,,,,,,,,,,,,,,,,,,,,,,,,,,,,,,,,,,,,,,,,,,,,,,,,,,,,,,,,,,19,0,19,0,1,,,,,,,,,,,,,,,,,,,,,,,,,,,,,
,,,,,63c3599c8a16601b603d421c,2026-02-02_11h12.57.717,causal,2025.1.1,Win32,11.99040767,,,,,,,,,,,,,,,,,,,,,,,,,,,,,,,,963.4188,963.9669,963.9669,963.9669,test,984.5386,984.5387,965.4824,972.6543,blue,stimuli/collisions/hit/stim13.mp4,f,6.5249,,TRUE,972.6601,981.4519,3,1,[0.9826000000236945],[0.9826000000236945],red,green,blue,97,3,981.4538,982.3237,0,[],[],1,[982.3681999999284],[982.3681999999284],982.3243,984.5365,-2.7549,325,TRUE,FALSE,984.5365,984.5367,,,,984.5388,984.5404,,,,,,0,0,0,0,1,,,,,,,,,,,,,,,,,,,,,,,,,,,,,,,,,,
,,,,,63c3599c8a16601b603d421c,2026-02-02_11h12.57.717,causal,2025.1.1,Win32,11.99040767,,,,,,,,,,,,,,,,,,,,,,,,,,,,,,,,,,,,,,,,,,,,,,,,,,,,,,,,,,,,,,,,,,,,,,,,,,,,,,,,,,,,,,,,,20,0,20,0,1,,,,,,,,,,,,,,,,,,,,,,,,,,,,,
,,,,,63c3599c8a16601b603d421c,2026-02-02_11h12.57.717,causal,2025.1.1,Win32,11.99040767,,,,,,,,,,,,,,,,,,,,,,,,,,,,,,,,984.5411,985.4025,985.4025,985.4025,catch,1029.0341,1030.0531,986.9631,987.6581,blue,stimuli/collisions/miss/stim2.mp4,f,0.1014,,TRUE,987.6632,998.6084,12,1,[1.2647999999524018],[1.2647999999524018],red,green,blue,17,86,998.6101,999.6368,1,[999.6828999999763],[999.6828999999763],0,[],[],999.6375,1005.6822,3.8986,320,FALSE,TRUE,1005.6822,1008.8109,"[""space""]",[1.0537000000476837],[null],1030.0532,1031.251,j,0.6371,,9,"[0.56,0.56,0.72,0.56,0.71,0.88,0.63,0.64,0.72,0.64]",9,0,9,0,1,,,,,,,,,,,,,,,,,,,,,,,,,,,,,,,,,,
,,,,,63c3599c8a16601b603d421c,2026-02-02_11h12.57.717,causal,2025.1.1,Win32,11.99040767,,,,,,,,,,,,,,,,,,,,,,,,,,,,,,,,,,,,,,,,,,,,,,,,,,,,,,,,,,,,,,,,,,,,,,,,,,,,,,,,,,,,,,,,,21,0,21,0,1,,,,,,,,,,,,,,,,,,,,,,,,,,,,,
,,,,,63c3599c8a16601b603d421c,2026-02-02_11h12.57.717,causal,2025.1.1,Win32,11.99040767,,,,,,,,,,,,,,,,,,,,,,,,,,,,,,,,1031.2518,1032.1829,1032.183,1032.183,test,1067.9144,1068.9311,1033.7506,1039.0746,miss,stimuli/collisions/hit/stim10.mp4,space,4.7157,,TRUE,1039.0797,1039.094,,0,[],[],red,green,blue,,,1039.0958,1041.2391,0,[],[],1,[1041.2820999999046],[1041.2820999999046],1041.2397,1043.9488,-0.4757,280,TRUE,TRUE,1043.9489,1047.5002,"[""space""]",[1.466299999952298],[null],1068.9312,1070.1181,space,0.561,,9,"[0.72,1.19,0.57,0.64,0.48,0.72,0.56,0.64,0.64,0.56]",9,0,9,0,1,,,,,,,,,,,,,,,,,,,,,,,,,,,,,,,,,,
,,,,,63c3599c8a16601b603d421c,2026-02-02_11h12.57.717,causal,2025.1.1,Win32,11.99040767,,,,,,,,,,,,,,,,,,,,,,,,,,,,,,,,,,,,,,,,,,,,,,,,,,,,,,,,,,,,,,,,,,,,,,,,,,,,,,,,,,,,,,,,,22,0,22,0,1,,,,,,,,,,,,,,,,,,,,,,,,,,,,,
,,,,,63c3599c8a16601b603d421c,2026-02-02_11h12.57.717,causal,2025.1.1,Win32,11.99040767,,,,,,,,,,,,,,,,,,,,,,,,,,,,,,,,1070.1189,1071.1294,1071.1295,1071.1295,test,1090.9767,1090.9768,1072.6969,1078.9653,blue,stimuli/collisions/hit/stim9.mp4,j,5.9618,,TRUE,1078.9702,1085.7096,6,1,[1.0824000000955039],[1.0824000000955039],red,green,blue,4,93,1085.7114,1087.0368,1,[1087.0827999999522],[1087.0827999999522],0,[],[],1087.0373,1090.9745,-2.1477,275,FALSE,FALSE,1090.9746,1090.975,,,,1090.9769,1090.98,,,,,,0,0,0,0,1,,,,,,,,,,,,,,,,,,,,,,,,,,,,,,,,,,
,,,,,63c3599c8a16601b603d421c,2026-02-02_11h12.57.717,causal,2025.1.1,Win32,11.99040767,,,,,,,,,,,,,,,,,,,,,,,,,,,,,,,,,,,,,,,,,,,,,,,,,,,,,,,,,,,,,,,,,,,,,,,,,,,,,,,,,,,,,,,,,23,0,23,0,1,,,,,,,,,,,,,,,,,,,,,,,,,,,,,
,,,,,63c3599c8a16601b603d421c,2026-02-02_11h12.57.717,causal,2025.1.1,Win32,11.99040767,,,,,,,,,,,,,,,,,,,,,,,,,,,,,,,,1090.9807,1091.681,1091.681,1091.6811,test,1167.9468,1168.9647,1093.25,1099.3552,green,stimuli/collisions/hit/stim12.mp4,k,5.4897,,TRUE,1099.3603,1105.0951,93,1,[1.0052999999525127],[1.0052999999525127],red,green,blue,4,4,1105.0968,1105.9781,0,[],[],1,[1106.0225999999047],[1106.0225999999047],1105.9787,1109.0774,-1.3797,295,TRUE,TRUE,1109.0774,1112.0492,"[""space""]",[0.8914999999999509],[null],1168.9648,1170.1636,j,0.6412,,24,"[0.71,0.56,0.48,0.56,0.56,0.64,0.49,0.64,0.56,0.71,0.64,0.64,0.56,0.72,0.48,0.88,0.72,0.64]",24,0,24,0,1,,,,,,,,,,,,,,,,,,,,,,,,,,,,,,,,,,
,,,,,63c3599c8a16601b603d421c,2026-02-02_11h12.57.717,causal,2025.1.1,Win32,11.99040767,,,,,,,,,,,,,,,,,,,,,,,,,,,,,,,,,,,,,,,,,,,,,,,,,,,,,,,,,,,,,,,,,,,,,,,,,,,,,,,,,,,,,,,,,24,0,24,0,1,,,,,,,,,,,,,,,,,,,,,,,,,,,,,
,,,,,63c3599c8a16601b603d421c,2026-02-02_11h12.57.717,causal,2025.1.1,Win32,11.99040767,,,,,,,,,,,,,,,,,,,,,,,,,,,,,,,,1170.1643,1171.0173,1171.0174,1171.0175,catch,1182.1728,1182.173,1172.5819,1178.1275,miss,stimuli/collisions/miss/stim6.mp4,space,4.9291,,TRUE,1178.1326,1178.1435,,0,[],[],red,green,blue,,,1178.1454,1180.0306,0,[],[],1,[1180.0757999999523],[1180.0757999999523],1180.0312,1182.171,-0.9291,315,TRUE,FALSE,1182.171,1182.1712,,,,1182.1731,1182.1744,,,,,,0,0,0,0,1,,,,,,,,,,,,,,,,,,,,,,,,,,,,,,,,,,
,,,,,63c3599c8a16601b603d421c,2026-02-02_11h12.57.717,causal,2025.1.1,Win32,11.99040767,,,,,,,,,,,,,,,,,,,,,,,,,,,,,,,,,,,,,,,,,,,,,,,,,,,,,,,,,,,,,,,,,,,,,,,,,,,,,,,,,,,,,,,,,25,0,25,0,1,,,,,,,,,,,,,,,,,,,,,,,,,,,,,
,,,,,63c3599c8a16601b603d421c,2026-02-02_11h12.57.717,causal,2025.1.1,Win32,11.99040767,,,,,,,,,,,,,,,,,,,,,,,,,,,,,,,,1182.1752,1183.1863,1183.1864,1183.1864,catch,1194.3373,1194.3374,1184.7553,1190.0403,miss,stimuli/collisions/miss/stim4.mp4,space,4.6724,,TRUE,1190.0461,1190.0593,,0,[],[],red,green,blue,,,1190.0617,1191.5525,0,[],[],1,[1191.5976999999284],[1191.5976999999284],1191.5531,1194.3354,-0.6724,335,TRUE,FALSE,1194.3355,1194.3356,,,,1194.3375,1194.3391,,,,,,0,0,0,0,1,,,,,,,,,,,,,,,,,,,,,,,,,,,,,,,,,,
,,,,,63c3599c8a16601b603d421c,2026-02-02_11h12.57.717,causal,2025.1.1,Win32,11.99040767,,,,,,,,,,,,,,,,,,,,,,,,,,,,,,,,,,,,,,,,,,,,,,,,,,,,,,,,,,,,,,,,,,,,,,,,,,,,,,,,,,,,,,,,,26,0,26,0,1,,,,,,,,,,,,,,,,,,,,,,,,,,,,,
,,,,,63c3599c8a16601b603d421c,2026-02-02_11h12.57.717,causal,2025.1.1,Win32,11.99040767,,,,,,,,,,,,,,,,,,,,,,,,,,,,,,,,,,,,,,,,,,,,,,,,,,,,,,,,,,,,,,,,,,,,,,,,,,,,,,,,,,,,,,,,,,,,,,1194.3396,1200.3416,,,,,,,,,,,,,,,,,,,,,,,,,,,
,,,,,63c3599c8a16601b603d421c,2026-02-02_11h12.57.717,causal,2025.1.1,Win32,11.99040767,,,,,,,,,,,,,,,,,,,,,,,,,,,,,,,,,,,,,,,,,,,,,,,,,,,,,,,,,,,,,,,,,,,,,,,,,,,,,,,,,,,,,,,,,,,,,,,,1200.3418,1209.3305,,,,,,,,,,,,,,,,,,,,,,,,,
,,,,,63c3599c8a16601b603d421c,2026-02-02_11h12.57.717,causal,2025.1.1,Win32,11.99040767,,,,,,,,,,,,,,,,,,,,,,,,,,,,,,,,1209.3328,1210.2762,,,,1210.2778,1211.8537,,,,stimuli/collisions/calibration/stim18.mp4,,,,,,,,,,,,,,,,,,,,,,,,,,,,,,,,,,,,,,,,,,,,,,,,,,,,,,,,1210.2775,1210.2778,1211.8556,1215.2111,1215.2145,1216.8653,1,[1216.8742999999522],[1216.8742999999522],0,[],[],FALSE,FALSE,TRUE,1216.8656,1219.1757,"[""space""]",[1.2098999999761872],[null],0,0,0,0,1
,,,,,63c3599c8a16601b603d421c,2026-02-02_11h12.57.717,causal,2025.1.1,Win32,11.99040767,,,,,,,,,,,,,,,,,,,,,,,,,,,,,,,,1219.1764,1221.3782,,,,1221.3788,1222.9146,,,,stimuli/collisions/calibration/stim14.mp4,,,,,,,,,,,,,,,,,,,,,,,,,,,,,,,,,,,,,,,,,,,,,,,,,,,,,,,,1221.3787,1221.3788,1222.9158,1226.3325,1226.3366,1227.0096,1,[1227.0188999999762],[1227.0188999999762],0,[],[],FALSE,FALSE,TRUE,1227.0097,1229.3427,"[""space""]",[1.2514999999998508],[0.001100000023825487],1,0,1,0,1
,,,,,63c3599c8a16601b603d421c,2026-02-02_11h12.57.717,causal,2025.1.1,Win32,11.99040767,,,,,,,,,,,,,,,,,,,,,,,,,,,,,,,,1229.3433,1229.5017,,,,1229.5027,1231.0116,,,,stimuli/collisions/calibration/stim12.mp4,,,,,,,,,,,,,,,,,,,,,,,,,,,,,,,,,,,,,,,,,,,,,,,,,,,,,,,,1229.5025,1229.5026,1231.0141,1233.8557,1233.8601,1234.8892,0,[],[],1,[1234.8971000000238],[1234.8971000000238],TRUE,FALSE,FALSE,1234.8892,1237.1906,"[""space""]",[1.2066000000238546],[null],2,0,2,0,1
,,,,,63c3599c8a16601b603d421c,2026-02-02_11h12.57.717,causal,2025.1.1,Win32,11.99040767,,,,,,,,,,,,,,,,,,,,,,,,,,,,,,,,1237.1913,1238.3007,,,,1238.3019,1239.8378,,,,stimuli/collisions/calibration/stim16.mp4,,,,,,,,,,,,,,,,,,,,,,,,,,,,,,,,,,,,,,,,,,,,,,,,,,,,,,,,1238.3015,1238.3015,1239.8392,1243.4196,1243.4229,1244.2723,1,[1244.2816999999284],[1244.2816999999284],0,[],[],FALSE,FALSE,TRUE,1244.2723,1248.7087,"[""space""]",[3.335700000047609],[null],3,0,3,0,1
,,,,,63c3599c8a16601b603d421c,2026-02-02_11h12.57.717,causal,2025.1.1,Win32,11.99040767,,,,,,,,,,,,,,,,,,,,,,,,,,,,,,,,1248.7093,1251.5924,,,,1251.5933,1253.177,,,,stimuli/collisions/calibration/stim15.mp4,,,,,,,,,,,,,,,,,,,,,,,,,,,,,,,,,,,,,,,,,,,,,,,,,,,,,,,,1251.5932,1251.5932,1253.178,1256.4487,1256.4531,1257.209,1,[1257.2182999999523],[1257.2182999999523],0,[],[],FALSE,TRUE,FALSE,1257.2092,1259.5166,"[""space""]",[1.2378999999762073],[null],4,0,4,0,1
,,,,,63c3599c8a16601b603d421c,2026-02-02_11h12.57.717,causal,2025.1.1,Win32,11.99040767,,,,,,,,,,,,,,,,,,,,,,,,,,,,,,,,1259.5173,1260.5684,,,,1260.5699,1262.075,,,,stimuli/collisions/calibration/stim11.mp4,,,,,,,,,,,,,,,,,,,,,,,,,,,,,,,,,,,,,,,,,,,,,,,,,,,,,,,,1260.5698,1260.5698,1262.0766,1264.9405,1264.9448,1266.4353,1,[1266.444600000024],[1266.444600000024],0,[],[],FALSE,TRUE,FALSE,1266.4353,1268.18,"[""space""]",[0.6490000000001146],[null],5,0,5,0,1
,,,,,63c3599c8a16601b603d421c,2026-02-02_11h12.57.717,causal,2025.1.1,Win32,11.99040767,,,,,,,,,,,,,,,,,,,,,,,,,,,,,,,,1268.1807,1269.0425,,,,1269.0434,1270.5779,,,,stimuli/collisions/calibration/stim19.mp4,,,,,,,,,,,,,,,,,,,,,,,,,,,,,,,,,,,,,,,,,,,,,,,,,,,,,,,,1269.0433,1269.0433,1270.579,1273.577,1273.5811,1274.6012,0,[],[],1,[1274.6092000000476],[1274.6092000000476],TRUE,FALSE,FALSE,1274.6013,1275.8801,"[""space""]",[0.17090000009534378],[null],6,0,6,0,1
,,,,,63c3599c8a16601b603d421c,2026-02-02_11h12.57.717,causal,2025.1.1,Win32,11.99040767,,,,,,,,,,,,,,,,,,,,,,,,,,,,,,,,1275.8808,1276.608,,,,1276.609,1278.187,,,,stimuli/collisions/calibration/stim8.mp4,,,,,,,,,,,,,,,,,,,,,,,,,,,,,,,,,,,,,,,,,,,,,,,,,,,,,,,,1276.6088,1276.6089,1278.188,1281.7054,1281.71,1282.6152,1,[1282.6246000000237],[1282.6246000000237],0,[],[],FALSE,FALSE,TRUE,1282.6153,1287.1915,"[""space""]",[3.43170000004784],[null],7,0,7,0,1
,,,,,63c3599c8a16601b603d421c,2026-02-02_11h12.57.717,causal,2025.1.1,Win32,11.99040767,,,,,,,,,,,,,,,,,,,,,,,,,,,,,,,,1287.1922,1293.9258,,,,1293.9267,1295.4683,,,,stimuli/collisions/calibration/stim10.mp4,,,,,,,,,,,,,,,,,,,,,,,,,,,,,,,,,,,,,,,,,,,,,,,,,,,,,,,,1293.9265,1293.9267,1295.4693,1298.2047,1298.2091,1298.8887,1,[1298.8981000000238],[1298.8981000000238],0,[],[],FALSE,TRUE,FALSE,1298.8887,1300.0646,"[""space""]",[0.09169999992855082],[null],8,0,8,0,1
,,,,,63c3599c8a16601b603d421c,2026-02-02_11h12.57.717,causal,2025.1.1,Win32,11.99040767,,,,,,,,,,,,,,,,,,,,,,,,,,,,,,,,1300.0653,1300.6942,,,,1300.6952,1302.2407,,,,stimuli/collisions/calibration/stim2.mp4,,,,,,,,,,,,,,,,,,,,,,,,,,,,,,,,,,,,,,,,,,,,,,,,,,,,,,,,1300.695,1300.6952,1302.2424,1305.8941,1305.8977,1306.4121,1,[1306.4215],[1306.4215],0,[],[],FALSE,TRUE,FALSE,1306.4122,1307.9926,"[""space""]",[0.48650000000020555],[null],9,0,9,0,1
,,,,,63c3599c8a16601b603d421c,2026-02-02_11h12.57.717,causal,2025.1.1,Win32,11.99040767,,,,,,,,,,,,,,,,,,,,,,,,,,,,,,,,1307.9933,1309.0189,,,,1309.0197,1310.5253,,,,stimuli/collisions/calibration/stim20.mp4,,,,,,,,,,,,,,,,,,,,,,,,,,,,,,,,,,,,,,,,,,,,,,,,,,,,,,,,1309.0196,1309.0197,1310.5269,1313.3045,1313.3089,1314.3997,0,[],[],1,[1314.4076000000236],[1314.4077000000475],TRUE,TRUE,TRUE,1314.3997,1316.2942,"[""space""]",[0.7408999999761363],[null],10,0,10,0,1
,,,,,63c3599c8a16601b603d421c,2026-02-02_11h12.57.717,causal,2025.1.1,Win32,11.99040767,,,,,,,,,,,,,,,,,,,,,,,,,,,,,,,,1316.295,1316.9512,,,,1316.9521,1318.4836,,,,stimuli/collisions/calibration/stim1.mp4,,,,,,,,,,,,,,,,,,,,,,,,,,,,,,,,,,,,,,,,,,,,,,,,,,,,,,,,1316.952,1316.952,1318.4851,1321.8115,1321.8169,1323.4397,1,[1323.449],[1323.449],0,[],[],FALSE,FALSE,TRUE,1323.4398,1324.5423,"[""space""]",[0.012999999999919964],[null],11,0,11,0,1
,,,,,63c3599c8a16601b603d421c,2026-02-02_11h12.57.717,causal,2025.1.1,Win32,11.99040767,,,,,,,,,,,,,,,,,,,,,,,,,,,,,,,,1324.543,1325.0977,,,,1325.0984,1326.677,,,,stimuli/collisions/calibration/stim5.mp4,,,,,,,,,,,,,,,,,,,,,,,,,,,,,,,,,,,,,,,,,,,,,,,,,,,,,,,,1325.0984,1325.0984,1326.6786,1330.8933,1330.8973,1331.5706,1,[1331.579899999976],[1331.58],0,[],[],FALSE,FALSE,TRUE,1331.5708,1333.1237,"[""space""]",[0.4081000000237509],[null],12,0,12,0,1
,,,,,63c3599c8a16601b603d421c,2026-02-02_11h12.57.717,causal,2025.1.1,Win32,11.99040767,,,,,,,,,,,,,,,,,,,,,,,,,,,,,,,,1333.1257,1333.3625,,,,1333.3634,1334.8654,,,,stimuli/collisions/calibration/stim6.mp4,,,,,,,,,,,,,,,,,,,,,,,,,,,,,,,,,,,,,,,,,,,,,,,,,,,,,,,,1333.3633,1333.3634,1334.867,1337.4905,1337.4951,1338.1583,1,[1338.1676000000239],[1338.1676999999283],0,[],[],FALSE,FALSE,TRUE,1338.1583,1339.7279,"[""space""]",[0.4960000000000946],[null],13,0,13,0,1
,,,,,63c3599c8a16601b603d421c,2026-02-02_11h12.57.717,causal,2025.1.1,Win32,11.99040767,,,,,,,,,,,,,,,,,,,,,,,,,,,,,,,,1339.7292,1340.2104,,,,1340.2113,1341.7236,,,,stimuli/collisions/calibration/stim13.mp4,,,,,,,,,,,,,,,,,,,,,,,,,,,,,,,,,,,,,,,,,,,,,,,,,,,,,,,,1340.2112,1340.2112,1341.725,1344.6629,1344.6671,1345.2517,0,[],[],1,[1345.2596000000237],[1345.2596000000237],TRUE,FALSE,FALSE,1345.2518,1346.3513,"[""space""]",[0.012600000023894609],[null],14,0,14,0,1
,,,,,63c3599c8a16601b603d421c,2026-02-02_11h12.57.717,causal,2025.1.1,Win32,11.99040767,,,,,,,,,,,,,,,,,,,,,,,,,,,,,,,,1346.3521,1346.7443,,,,1346.7452,1348.2456,,,,stimuli/collisions/calibration/stim9.mp4,,,,,,,,,,,,,,,,,,,,,,,,,,,,,,,,,,,,,,,,,,,,,,,,,,,,,,,,1346.7451,1346.7452,1348.247,1351.3085,1351.3129,1352.1621,0,[],[],1,[1352.1701000000237],[1352.1701000000237],TRUE,FALSE,FALSE,1352.1622,1353.3261,"[""space""]",[0.09410000002390007],[null],15,0,15,0,1
,,,,,63c3599c8a16601b603d421c,2026-02-02_11h12.57.717,causal,2025.1.1,Win32,11.99040767,,,,,,,,,,,,,,,,,,,,,,,,,,,,,,,,1353.3267,1354.1919,,,,1354.1928,1355.7337,,,,stimuli/collisions/calibration/stim7.mp4,,,,,,,,,,,,,,,,,,,,,,,,,,,,,,,,,,,,,,,,,,,,,,,,,,,,,,,,1354.1926,1354.1928,1355.7356,1358.4139,1358.4187,1359.2063,0,[],[],1,[1359.2142999999521],[1359.2142999999521],TRUE,TRUE,TRUE,1359.2064,1360.6945,"[""space""]",[0.4090000000001055],[null],16,0,16,0,1
,,,,,63c3599c8a16601b603d421c,2026-02-02_11h12.57.717,causal,2025.1.1,Win32,11.99040767,,,,,,,,,,,,,,,,,,,,,,,,,,,,,,,,1360.6951,1361.0081,,,,1361.0096,1362.5319,,,,stimuli/collisions/calibration/stim3.mp4,,,,,,,,,,,,,,,,,,,,,,,,,,,,,,,,,,,,,,,,,,,,,,,,,,,,,,,,1361.0095,1361.0096,1362.5329,1366.6404,1366.6441,1367.1693,1,[1367.1786000000238],[1367.1786000000238],0,[],[],FALSE,FALSE,TRUE,1367.1693,1368.754,"[""space""]",[0.4857999999524054],[null],17,0,17,0,1
,,,,,63c3599c8a16601b603d421c,2026-02-02_11h12.57.717,causal,2025.1.1,Win32,11.99040767,,,,,,,,,,,,,,,,,,,,,,,,,,,,,,,,1368.7546,1369.2365,,,,1369.2374,1370.7429,,,,stimuli/collisions/calibration/stim17.mp4,,,,,,,,,,,,,,,,,,,,,,,,,,,,,,,,,,,,,,,,,,,,,,,,,,,,,,,,1369.2373,1369.2374,1370.7447,1373.9565,1373.961,1374.5531,0,[],[],1,[1374.5611000000238],[1374.5611000000238],TRUE,TRUE,TRUE,1374.5531,1376.6259,"[""space""]",[0.9751000000237582],[null],18,0,18,0,1
,,,,,63c3599c8a16601b603d421c,2026-02-02_11h12.57.717,causal,2025.1.1,Win32,11.99040767,,,,,,,,,,,,,,,,,,,,,,,,,,,,,,,,1376.6268,1377.1034,,,,1377.1042,1378.6274,,,,stimuli/collisions/calibration/stim4.mp4,,,,,,,,,,,,,,,,,,,,,,,,,,,,,,,,,,,,,,,,,,,,,,,,,,,,,,,,1377.1041,1377.1042,1378.6284,1381.371,1381.3754,1381.9609,0,[],[],1,[1381.9689999999998],[1381.9689999999998],TRUE,TRUE,TRUE,1381.961,1383.5008,"[""space""]",[0.4362999999523254],[null],19,0,19,0,1
