intro.started,intro.stopped,button_6.numClicks,button_6.timesOn,button_6.timesOff,participant,date,expName,psychopyVersion,OS,frameRate,timing_info.started,timing_info.stopped,button_7.numClicks,button_7.timesOn,button_7.timesOff,hand_positions.started,hand_positions.stopped,space_bar.keys,space_bar.rt,space_bar.duration,train_keys.started,train_keys.stopped,key_resp.keys,key_resp.rt,key_resp.duration,score.started,score.stopped,training.thisRepN,training.thisTrialN,training.thisN,training.thisIndex,training.ran,training_rounds,test_instruct.started,test_instruct.stopped,instruct_cont.started,instruct_cont.stopped,point_instruct.started,point_instruct.stopped,accident_instruct.started,accident_instruct.stopped,advance.started,advance.stopped,flip_video.started,flip_video.stopped,trial_type,buffer.started,buffer.stopped,collision.started,collision.stopped,selection,stimuli_path,select_resp.keys,select_resp.rt,select_resp.duration,resp_trial,responsibility.started,responsibility.stopped,conf_2.response,button.numClicks,button.timesOn,button.timesOff,conf_one,conf_two,conf_three,conf_3.response,conf_1.response,forfeit.started,forfeit.stopped,forfeit_button.numClicks,forfeit_button.timesOn,forfeit_button.timesOff,keep_button.numClicks,keep_button.timesOn,keep_button.timesOff,accuracy.started,accuracy.stopped,rt_diff,acc_points,keep_round,practice_round,begin_review.started,begin_review.stopped,space_bar_6.keys,space_bar_6.rt,space_bar_6.duration,review_keys.started,review_keys.stopped,key_resp_2.keys,key_resp_2.rt,key_resp_2.duration,review_trials,baseline_rts,review.thisRepN,review.thisTrialN,review.thisN,review.thisIndex,review.ran,trials.thisRepN,trials.thisTrialN,trials.thisN,trials.thisIndex,trials.ran,transition.started,transition.stopped,calibrate_instruct.started,calibrate_instruct.stopped,flip_calibration.started,flip_calibration.stopped,calibrate.started,calibrate.stopped,prediction.started,prediction.stopped,miss.numClicks,miss.timesOn,miss.timesOff,hit.numClicks,hit.timesOn,hit.timesOff,calibration_pred,calibration_actual,calibration_score,cal_feedback.started,cal_feedback.stopped,space_bar_12.keys,space_bar_12.rt,space_bar_12.duration,calibration.thisRepN,calibration.thisTrialN,calibration.thisN,calibration.thisIndex,calibration.ran
0.0011,7.0433,1,[2.051200000047686],[2.051200000047686],652c5f38cf13042034313b91,2026-02-02_11h16.06.077,causal,2025.1.1,Win32,60.24096386,,,,,,,,,,,,,,,,,,,,,,,,,,,,,,,,,,,,,,,,,,,,,,,,,,,,,,,,,,,,,,,,,,,,,,,,,,,,,,,,,,,,,,,,,,,,,,,,,,,,,,,,,,,,,,,,,,,,,,,,,,
,,,,,652c5f38cf13042034313b91,2026-02-02_11h16.06.077,causal,2025.1.1,Win32,60.24096386,7.044,17.1596,1,[5.11679999995232],[5.11679999995232],,,,,,,,,,,,,,,,,,,,,,,,,,,,,,,,,,,,,,,,,,,,,,,,,,,,,,,,,,,,,,,,,,,,,,,,,,,,,,,,,,,,,,,,,,,,,,,,,,,,,,,,,,,,,,,,,,,,,
,,,,,652c5f38cf13042034313b91,2026-02-02_11h16.06.077,causal,2025.1.1,Win32,60.24096386,,,,,,17.1601,36.618,"[""space"",""space""]","[5.965099999904631,16.394]","[null,null]",,,,,,,,,,,,,,,,,,,,,,,,,,,,,,,,,,,,,,,,,,,,,,,,,,,,,,,,,,,,,,,,,,,,,,,,,,,,,,,,,,,,,,,,,,,,,,,,,,,,,,,,,,,,,,,,
,,,,,652c5f38cf13042034313b91,2026-02-02_11h16.06.077,causal,2025.1.1,Win32,60.24096386,,,,,,,,,,,107.3872,108.4269,space,0.6547,,108.4276,111.4091,0,0,0,0,1,,,,,,,,,,,,,,,,,,,,,,,,,,,,,,,,,,,,,,,,,,,,,,,,,,,,,,,,,,,,,,,,,,,,,,,,,,,,,,,,,,,,,,,,,,,,,,,,,,,,
,,,,,652c5f38cf13042034313b91,2026-02-02_11h16.06.077,causal,2025.1.1,Win32,60.24096386,,,,,,,,,,,180.3858,181.5194,f,0.7837,,181.5196,184.3148,1,0,1,0,1,2,,,,,,,,,,,,,,,,,,,,,,,,,,,,,,,,,,,,,,,,,,,,,,,,,,,,,,,,,,,,,,,,,,,,,,,,,,,,,,,,,,,,,,,,,,,,,,,,,,,
,,,,,652c5f38cf13042034313b91,2026-02-02_11h16.06.077,causal,2025.1.1,Win32,60.24096386,,,,,,,,,,,,,,,,,,,,,,,,184.3164,190.7854,,,,,,,,,,,,,,,,,,,,,,,,,,,,,,,,,,,,,,,,,,,,,,,,,,,,,,,,,,,,,,,,,,,,,,,,,,,,,,,,,,,,,,,,,,,,,,,,,
,,,,,652c5f38cf13042034313b91,2026-02-02_11h16.06.077,causal,2025.1.1,Win32,60.24096386,,,,,,,,,,,,,,,,,,,,,,,,,,190.7858,198.5102,,,,,,,,,,,,,,,,,,,,,,,,,,,,,,,,,,,,,,,,,,,,,,,,,,,,,,,,,,,,,,,,,,,,,,,,,,,,,,,,,,,,,,,,,,,,,,,
,,,,,652c5f38cf13042034313b91,2026-02-02_11h16.06.077,causal,2025.1.1,Win32,60.24096386,,,,,,,,,,,,,,,,,,,,,,,,,,,,198.5105,205.7928,,,,,,,,,,,,,,,,,,,,,,,,,,,,,,,,,,,,,,,,,,,,,,,,,,,,,,,,,,,,,,,,,,,,,,,,,,,,,,,,,,,,,,,,,,,,,
,,,,,652c5f38cf13042034313b91,2026-02-02_11h16.06.077,causal,2025.1.1,Win32,60.24096386,,,,,,,,,,,,,,,,,,,,,,,,,,,,,,205.793,210.06,,,,,,,,,,,,,,,,,,,,,,,,,,,,,,,,,,,,,,,,,,,,,,,,,,,,,,,,,,,,,,,,,,,,,,,,,,,,,,,,,,,,,,,,,,,
,,,,,652c5f38cf13042034313b91,2026-02-02_11h16.06.077,causal,2025.1.1,Win32,60.24096386,,,,,,,,,,,,,,,,,,,,,,,,,,,,,,,,210.0629,211.6934,211.694,211.6943,train,269.528,270.5431,213.2125,214.4038,blue,stimuli/collisions/training/stim3.mp4,f,0.8245,,TRUE,214.4079,235.8278,56,1,[4.532599999904619],[4.532700000047669],red,green,blue,87,54,235.8282,240.1098,0,[],[],1,[240.1317999999523],[240.13190000009536],240.1107,245.1934,2.4455,35,TRUE,TRUE,245.1941,248.1603,"[""space""]",[0.9312000000476814],[null],270.5433,271.4274,j,0.5368,,9,"[2.64,0.86,0.68,0.63,1.28,0.64,0.97,0.65,0.63,0.54]",9,0,9,0,1,,,,,,,,,,,,,,,,,,,,,,,,,,,,,,,,,,
,,,,,652c5f38cf13042034313b91,2026-02-02_11h16.06.077,causal,2025.1.1,Win32,60.24096386,,,,,,,,,,,,,,,,,,,,,,,,,,,,,,,,,,,,,,,,,,,,,,,,,,,,,,,,,,,,,,,,,,,,,,,,,,,,,,,,,,,,,,,,,0,0,0,0,1,,,,,,,,,,,,,,,,,,,,,,,,,,,,,
,,,,,652c5f38cf13042034313b91,2026-02-02_11h16.06.077,causal,2025.1.1,Win32,60.24096386,,,,,,,,,,,,,,,,,,,,,,,,,,,,,,,,271.4287,273.1762,273.1764,273.1765,train,313.6445,314.66,274.6945,276.0258,red,stimuli/collisions/training/stim2.mp4,j,0.9833,,TRUE,276.0301,285.1372,40,1,[1.8658000001907453],[1.8658000001907453],red,green,blue,35,69,285.1387,286.3702,0,[],[],1,[286.39240000009534],[286.39240000009534],286.3709,289.8926,3.0167,-5,TRUE,TRUE,289.8927,293.0929,"[""space""]",[1.1686999998092915],[null],314.6601,315.6608,k,0.647,,9,"[0.7,1.1,0.68,0.7,1.39,1.28,0.69,0.9,0.74,0.65]",9,0,9,0,1,,,,,,,,,,,,,,,,,,,,,,,,,,,,,,,,,,
,,,,,652c5f38cf13042034313b91,2026-02-02_11h16.06.077,causal,2025.1.1,Win32,60.24096386,,,,,,,,,,,,,,,,,,,,,,,,,,,,,,,,,,,,,,,,,,,,,,,,,,,,,,,,,,,,,,,,,,,,,,,,,,,,,,,,,,,,,,,,,1,0,1,0,1,,,,,,,,,,,,,,,,,,,,,,,,,,,,,
,,,,,652c5f38cf13042034313b91,2026-02-02_11h16.06.077,causal,2025.1.1,Win32,60.24096386,,,,,,,,,,,,,,,,,,,,,,,,,,,,,,,,315.6613,330.1266,330.1268,330.1269,train,367.4123,368.4253,331.6433,333.4206,miss,stimuli/collisions/training/stim1.mp4,space,1.4132,,TRUE,333.4246,333.4382,,0,[],[],red,green,blue,,,333.44,335.6022,0,[],[],1,[335.625],[335.625],335.6027,340.0208,2.7268,-45,TRUE,TRUE,340.0209,342.8926,"[""space""]",[0.8499000000953743],[null],368.4253,369.4536,space,0.6453,,9,"[1.12,1.46,1.22,0.68,1.92,2,0.67,0.71,2.33,0.65]",9,0,9,0,1,,,,,,,,,,,,,,,,,,,,,,,,,,,,,,,,,,
,,,,,652c5f38cf13042034313b91,2026-02-02_11h16.06.077,causal,2025.1.1,Win32,60.24096386,,,,,,,,,,,,,,,,,,,,,,,,,,,,,,,,,,,,,,,,,,,,,,,,,,,,,,,,,,,,,,,,,,,,,,,,,,,,,,,,,,,,,,,,,2,0,2,0,1,,,,,,,,,,,,,,,,,,,,,,,,,,,,,
,,,,,652c5f38cf13042034313b91,2026-02-02_11h16.06.077,causal,2025.1.1,Win32,60.24096386,,,,,,,,,,,,,,,,,,,,,,,,,,,,,,,,369.4545,373.269,373.2691,373.2692,catch,412.8781,413.8925,374.785,376.3842,red,stimuli/collisions/miss/stim1.mp4,j,1.2522,,TRUE,376.3888,382.3119,45,1,[0.9504000000953852],[0.9504000000953852],red,green,blue,38,83,382.3145,383.3105,0,[],[],1,[383.3322999999523],[383.3322999999523],383.3111,387.993,2.7478,-85,TRUE,TRUE,387.9932,390.9931,"[""space""]",[0.9695999999046307],[null],413.8926,414.8608,k,0.6165,,9,"[2.73,0.57,0.68,0.99,1,0.85,1.58,0.58,0.55,0.62]",9,0,9,0,1,,,,,,,,,,,,,,,,,,,,,,,,,,,,,,,,,,
,,,,,652c5f38cf13042034313b91,2026-02-02_11h16.06.077,causal,2025.1.1,Win32,60.24096386,,,,,,,,,,,,,,,,,,,,,,,,,,,,,,,,,,,,,,,,,,,,,,,,,,,,,,,,,,,,,,,,,,,,,,,,,,,,,,,,,,,,,,,,,3,0,3,0,1,,,,,,,,,,,,,,,,,,,,,,,,,,,,,
,,,,,652c5f38cf13042034313b91,2026-02-02_11h16.06.077,causal,2025.1.1,Win32,60.24096386,,,,,,,,,,,,,,,,,,,,,,,,,,,,,,,,414.8616,415.91,415.9105,415.9106,test,430.5282,430.5284,417.4276,419.4993,blue,stimuli/collisions/hit/stim11.mp4,f,1.7283,,TRUE,419.5028,426.2776,45,1,[1.83270000004768],[1.83270000004768],red,green,blue,85,27,426.2795,427.3601,0,[],[],1,[427.38210000014305],[427.38210000014305],427.3609,430.5261,1.8417,-50,TRUE,FALSE,430.5262,430.5265,,,,430.5285,430.5294,,,,,,0,0,0,0,1,,,,,,,,,,,,,,,,,,,,,,,,,,,,,,,,,,
,,,,,652c5f38cf13042034313b91,2026-02-02_11h16.06.077,causal,2025.1.1,Win32,60.24096386,,,,,,,,,,,,,,,,,,,,,,,,,,,,,,,,,,,,,,,,,,,,,,,,,,,,,,,,,,,,,,,,,,,,,,,,,,,,,,,,,,,,,,,,,4,0,4,0,1,,,,,,,,,,,,,,,,,,,,,,,,,,,,,
,,,,,652c5f38cf13042034313b91,2026-02-02_11h16.06.077,causal,2025.1.1,Win32,60.24096386,,,,,,,,,,,,,,,,,,,,,,,,,,,,,,,,430.5298,431.7596,431.76,431.76,test,446.7288,446.7289,433.2783,435.4424,red,stimuli/collisions/hit/stim17.mp4,j,1.8152,,TRUE,435.4459,442.6453,44,1,[1.6327000000476914],[1.6327000000476914],red,green,blue,33,86,442.6474,443.6273,0,[],[],1,[443.649],[443.649],443.628,446.7267,2.4948,-15,TRUE,FALSE,446.7268,446.7271,,,,446.729,446.7296,,,,,,0,0,0,0,1,,,,,,,,,,,,,,,,,,,,,,,,,,,,,,,,,,
,,,,,652c5f38cf13042034313b91,2026-02-02_11h16.06.077,causal,2025.1.1,Win32,60.24096386,,,,,,,,,,,,,,,,,,,,,,,,,,,,,,,,,,,,,,,,,,,,,,,,,,,,,,,,,,,,,,,,,,,,,,,,,,,,,,,,,,,,,,,,,5,0,5,0,1,,,,,,,,,,,,,,,,,,,,,,,,,,,,,
,,,,,652c5f38cf13042034313b91,2026-02-02_11h16.06.077,causal,2025.1.1,Win32,60.24096386,,,,,,,,,,,,,,,,,,,,,,,,,,,,,,,,446.73,447.6924,447.6926,447.6927,test,480.5782,481.5931,449.2111,451.3195,miss,stimuli/collisions/hit/stim2.mp4,space,1.7597,,TRUE,451.3235,451.3308,,0,[],[],red,green,blue,,,451.3318,453.143,0,[],[],1,[453.16560000014306],[453.16560000014306],453.1438,456.1099,2.1503,-55,TRUE,TRUE,456.11,459.0601,"[""space""]",[0.9184999999999945],[null],481.5932,482.6941,f,0.746,,9,"[2.45,0.6,0.63,1.76,0.55,0.9,0.67,0.8,0.8,0.75]",9,0,9,0,1,,,,,,,,,,,,,,,,,,,,,,,,,,,,,,,,,,
,,,,,652c5f38cf13042034313b91,2026-02-02_11h16.06.077,causal,2025.1.1,Win32,60.24096386,,,,,,,,,,,,,,,,,,,,,,,,,,,,,,,,,,,,,,,,,,,,,,,,,,,,,,,,,,,,,,,,,,,,,,,,,,,,,,,,,,,,,,,,,6,0,6,0,1,,,,,,,,,,,,,,,,,,,,,,,,,,,,,
,,,,,652c5f38cf13042034313b91,2026-02-02_11h16.06.077,causal,2025.1.1,Win32,60.24096386,,,,,,,,,,,,,,,,,,,,,,,,,,,,,,,,482.6949,483.4098,483.4102,483.4103,catch,497.2119,497.2121,484.928,486.7767,miss,stimuli/collisions/miss/stim4.mp4,space,1.4929,,TRUE,486.7832,486.7927,,0,[],[],red,green,blue,,,486.7945,490.6858,0,[],[],1,[490.70860000014306],[490.70870000004777],490.6864,497.2101,2.5071,-15,TRUE,FALSE,497.2102,497.2104,,,,497.2121,497.213,,,,,,0,0,0,0,1,,,,,,,,,,,,,,,,,,,,,,,,,,,,,,,,,,
,,,,,652c5f38cf13042034313b91,2026-02-02_11h16.06.077,causal,2025.1.1,Win32,60.24096386,,,,,,,,,,,,,,,,,,,,,,,,,,,,,,,,,,,,,,,,,,,,,,,,,,,,,,,,,,,,,,,,,,,,,,,,,,,,,,,,,,,,,,,,,7,0,7,0,1,,,,,,,,,,,,,,,,,,,,,,,,,,,,,
,,,,,652c5f38cf13042034313b91,2026-02-02_11h16.06.077,causal,2025.1.1,Win32,60.24096386,,,,,,,,,,,,,,,,,,,,,,,,,,,,,,,,497.2132,498.3266,498.327,498.3272,test,533.2449,534.2597,499.844,501.7192,red,stimuli/collisions/hit/stim6.mp4,j,1.5262,,TRUE,501.7228,506.6784,44,1,[0.7332999999523508],[0.7332999999523508],red,green,blue,30,90,506.6819,507.7267,0,[],[],1,[507.7487999999523],[507.7487999999523],507.7271,511.6268,1.7138,15,TRUE,TRUE,511.6269,514.2599,"[""space""]",[0.6009000000954074],[null],534.2598,535.0945,j,0.4837,,9,"[0.74,0.52,0.42,0.6,0.7,0.61,1.43,1.05,0.57,0.48]",9,0,9,0,1,,,,,,,,,,,,,,,,,,,,,,,,,,,,,,,,,,
,,,,,652c5f38cf13042034313b91,2026-02-02_11h16.06.077,causal,2025.1.1,Win32,60.24096386,,,,,,,,,,,,,,,,,,,,,,,,,,,,,,,,,,,,,,,,,,,,,,,,,,,,,,,,,,,,,,,,,,,,,,,,,,,,,,,,,,,,,,,,,8,0,8,0,1,,,,,,,,,,,,,,,,,,,,,,,,,,,,,
,,,,,652c5f38cf13042034313b91,2026-02-02_11h16.06.077,causal,2025.1.1,Win32,60.24096386,,,,,,,,,,,,,,,,,,,,,,,,,,,,,,,,535.0956,535.8764,535.8767,535.8768,test,547.1939,547.1941,537.3943,539.2191,green,stimuli/collisions/hit/stim3.mp4,k,1.454,,TRUE,539.2235,543.4616,87,1,[0.5834000000953665],[0.5834000000953665],red,green,blue,29,40,543.4639,544.4936,0,[],[],1,[544.5156000001431],[544.5156000001431],544.4941,547.1926,1.886,50,TRUE,FALSE,547.1926,547.1928,,,,547.1942,547.1946,,,,,,0,0,0,0,1,,,,,,,,,,,,,,,,,,,,,,,,,,,,,,,,,,
,,,,,652c5f38cf13042034313b91,2026-02-02_11h16.06.077,causal,2025.1.1,Win32,60.24096386,,,,,,,,,,,,,,,,,,,,,,,,,,,,,,,,,,,,,,,,,,,,,,,,,,,,,,,,,,,,,,,,,,,,,,,,,,,,,,,,,,,,,,,,,9,0,9,0,1,,,,,,,,,,,,,,,,,,,,,,,,,,,,,
,,,,,652c5f38cf13042034313b91,2026-02-02_11h16.06.077,causal,2025.1.1,Win32,60.24096386,,,,,,,,,,,,,,,,,,,,,,,,,,,,,,,,547.1949,548.0429,548.0429,548.043,test,585.4617,586.4766,549.5593,552.343,miss,stimuli/collisions/hit/stim8.mp4,space,2.4282,,TRUE,552.3476,552.355,,0,[],[],red,green,blue,,,552.3562,554.2262,1,[554.2495],[554.2495],0,[],[],554.2268,563.3436,0.9118,45,FALSE,TRUE,563.3436,565.9434,"[""space""]",[0.5684999999999718],[null],586.4769,588.8106,j,1.9721,,9,"[2.05,0.61,0.96,0.58,0.65,0.5,0.5,0.69,0.55,1.97]",9,0,9,0,1,,,,,,,,,,,,,,,,,,,,,,,,,,,,,,,,,,
,,,,,652c5f38cf13042034313b91,2026-02-02_11h16.06.077,causal,2025.1.1,Win32,60.24096386,,,,,,,,,,,,,,,,,,,,,,,,,,,,,,,,,,,,,,,,,,,,,,,,,,,,,,,,,,,,,,,,,,,,,,,,,,,,,,,,,,,,,,,,,10,0,10,0,1,,,,,,,,,,,,,,,,,,,,,,,,,,,,,
,,,,,652c5f38cf13042034313b91,2026-02-02_11h16.06.077,causal,2025.1.1,Win32,60.24096386,,,,,,,,,,,,,,,,,,,,,,,,,,,,,,,,588.8113,589.66,589.6603,589.6603,catch,597.6617,597.6619,591.1778,593.46,miss,stimuli/collisions/miss/stim2.mp4,space,1.9269,,TRUE,593.4661,593.4782,,0,[],[],red,green,blue,,,593.4792,595.0437,0,[],[],1,[595.0664000000954],[595.0664000000954],595.0442,597.6599,2.0731,80,TRUE,FALSE,597.66,597.6602,,,,597.6619,597.6627,,,,,,0,0,0,0,1,,,,,,,,,,,,,,,,,,,,,,,,,,,,,,,,,,
,,,,,652c5f38cf13042034313b91,2026-02-02_11h16.06.077,causal,2025.1.1,Win32,60.24096386,,,,,,,,,,,,,,,,,,,,,,,,,,,,,,,,,,,,,,,,,,,,,,,,,,,,,,,,,,,,,,,,,,,,,,,,,,,,,,,,,,,,,,,,,11,0,11,0,1,,,,,,,,,,,,,,,,,,,,,,,,,,,,,
,,,,,652c5f38cf13042034313b91,2026-02-02_11h16.06.077,causal,2025.1.1,Win32,60.24096386,,,,,,,,,,,,,,,,,,,,,,,,,,,,,,,,597.6629,598.6261,598.6262,598.6263,test,610.4112,610.4116,600.1442,602.6163,blue,stimuli/collisions/hit/stim18.mp4,f,2.1066,,TRUE,602.6206,606.7283,38,1,[0.7162000000477065],[0.7162000000477065],red,green,blue,88,27,606.7307,607.7106,0,[],[],1,[607.7326000001431],[607.7326000001431],607.7113,610.4096,1.0334,105,TRUE,FALSE,610.4097,610.4098,,,,610.4116,610.4125,,,,,,0,0,0,0,1,,,,,,,,,,,,,,,,,,,,,,,,,,,,,,,,,,
,,,,,652c5f38cf13042034313b91,2026-02-02_11h16.06.077,causal,2025.1.1,Win32,60.24096386,,,,,,,,,,,,,,,,,,,,,,,,,,,,,,,,,,,,,,,,,,,,,,,,,,,,,,,,,,,,,,,,,,,,,,,,,,,,,,,,,,,,,,,,,12,0,12,0,1,,,,,,,,,,,,,,,,,,,,,,,,,,,,,
,,,,,652c5f38cf13042034313b91,2026-02-02_11h16.06.077,causal,2025.1.1,Win32,60.24096386,,,,,,,,,,,,,,,,,,,,,,,,,,,,,,,,610.4127,611.6766,611.6768,611.6769,test,643.2273,644.2433,613.1945,615.5929,miss,stimuli/collisions/hit/stim13.mp4,space,2.0444,,TRUE,615.5979,615.6056,,0,[],[],red,green,blue,,,615.6067,617.4935,1,[617.5162000000477],[617.5162000000477],0,[],[],617.4942,620.0264,1.7256,100,FALSE,TRUE,620.0266,622.6766,"[""space""]",[0.61850000000004],[null],644.2435,645.3111,k,0.7124,,9,"[2.14,0.5,0.6,0.7,0.51,1.31,0.66,0.63,1.13,0.71]",9,0,9,0,1,,,,,,,,,,,,,,,,,,,,,,,,,,,,,,,,,,
,,,,,652c5f38cf13042034313b91,2026-02-02_11h16.06.077,causal,2025.1.1,Win32,60.24096386,,,,,,,,,,,,,,,,,,,,,,,,,,,,,,,,,,,,,,,,,,,,,,,,,,,,,,,,,,,,,,,,,,,,,,,,,,,,,,,,,,,,,,,,,13,0,13,0,1,,,,,,,,,,,,,,,,,,,,,,,,,,,,,
,,,,,652c5f38cf13042034313b91,2026-02-02_11h16.06.077,causal,2025.1.1,Win32,60.24096386,,,,,,,,,,,,,,,,,,,,,,,,,,,,,,,,645.3116,647.6434,647.6438,647.6439,catch,681.3442,682.3599,649.1609,651.419,green,stimuli/collisions/miss/stim5.mp4,k,1.9067,,TRUE,651.4233,656.1116,86,1,[0.6655999999046571],[0.6655999999046571],red,green,blue,42,57,656.1138,656.9441,0,[],[],1,[656.9659000000954],[656.9659000000954],656.9446,659.3933,2.0933,60,TRUE,TRUE,659.3934,662.0097,"[""space""]",[0.5900999999046235],[null],682.36,683.4094,space,0.6734,,9,"[0.76,0.92,1.3,0.45,0.49,1.21,0.65,0.63,0.53,0.67]",9,0,9,0,1,,,,,,,,,,,,,,,,,,,,,,,,,,,,,,,,,,
,,,,,652c5f38cf13042034313b91,2026-02-02_11h16.06.077,causal,2025.1.1,Win32,60.24096386,,,,,,,,,,,,,,,,,,,,,,,,,,,,,,,,,,,,,,,,,,,,,,,,,,,,,,,,,,,,,,,,,,,,,,,,,,,,,,,,,,,,,,,,,14,0,14,0,1,,,,,,,,,,,,,,,,,,,,,,,,,,,,,
,,,,,652c5f38cf13042034313b91,2026-02-02_11h16.06.077,causal,2025.1.1,Win32,60.24096386,,,,,,,,,,,,,,,,,,,,,,,,,,,,,,,,683.4097,684.1102,684.1103,684.1103,test,719.0611,720.0769,685.6282,687.8192,miss,stimuli/collisions/hit/stim5.mp4,space,1.8585,,TRUE,687.8238,687.8325,,0,[],[],red,green,blue,,,687.834,689.7266,0,[],[],1,[689.7491000001431],[689.7491000001431],689.7273,695.8937,2.0815,20,TRUE,TRUE,695.8938,698.6932,"[""space""]",[0.7667000000476492],[null],720.0772,721.0446,space,0.5795,,9,"[1.01,0.98,0.6,0.43,0.44,0.61,1,0.68,0.58]",9,0,9,0,1,,,,,,,,,,,,,,,,,,,,,,,,,,,,,,,,,,
,,,,,652c5f38cf13042034313b91,2026-02-02_11h16.06.077,causal,2025.1.1,Win32,60.24096386,,,,,,,,,,,,,,,,,,,,,,,,,,,,,,,,,,,,,,,,,,,,,,,,,,,,,,,,,,,,,,,,,,,,,,,,,,,,,,,,,,,,,,,,,15,0,15,0,1,,,,,,,,,,,,,,,,,,,,,,,,,,,,,
,,,,,652c5f38cf13042034313b91,2026-02-02_11h16.06.077,causal,2025.1.1,Win32,60.24096386,,,,,,,,,,,,,,,,,,,,,,,,,,,,,,,,721.0454,721.7436,721.7438,721.7439,test,751.7625,752.777,723.2614,724.5764,miss,stimuli/collisions/hit/stim7.mp4,space,1.2964,,TRUE,724.5807,724.5881,,0,[],[],red,green,blue,,,724.5905,725.71,0,[],[],1,[725.7326000001431],[725.7326000001431],725.7108,728.093,2.3075,-20,TRUE,TRUE,728.093,730.9101,"[""space""]",[0.7865000000000464],[null],752.7772,753.8448,f,0.7143,,9,"[0.8,2.09,0.48,0.53,0.88,0.61,1.87,0.6,0.61,0.71]",9,0,9,0,1,,,,,,,,,,,,,,,,,,,,,,,,,,,,,,,,,,
,,,,,652c5f38cf13042034313b91,2026-02-02_11h16.06.077,causal,2025.1.1,Win32,60.24096386,,,,,,,,,,,,,,,,,,,,,,,,,,,,,,,,,,,,,,,,,,,,,,,,,,,,,,,,,,,,,,,,,,,,,,,,,,,,,,,,,,,,,,,,,16,0,16,0,1,,,,,,,,,,,,,,,,,,,,,,,,,,,,,
,,,,,652c5f38cf13042034313b91,2026-02-02_11h16.06.077,causal,2025.1.1,Win32,60.24096386,,,,,,,,,,,,,,,,,,,,,,,,,,,,,,,,753.8455,754.6768,754.6771,754.6771,catch,788.42,789.4361,756.1944,757.1102,blue,stimuli/collisions/miss/stim6.mp4,f,0.5616,,TRUE,757.1165,762.1388,33,1,[0.7992000000476764],[0.7992000000476764],red,green,blue,74,37,762.141,763.3943,0,[],[],1,[763.416],[763.416],763.3948,766.1435,3.4384,-60,TRUE,TRUE,766.1436,769.0266,"[""space""]",[0.8544000000954384],[null],789.4362,790.5869,j,0.7963,,9,"[0.63,0.75,0.45,1.34,0.5,0.58,1.31,0.57,0.87,0.8]",9,0,9,0,1,,,,,,,,,,,,,,,,,,,,,,,,,,,,,,,,,,
,,,,,652c5f38cf13042034313b91,2026-02-02_11h16.06.077,causal,2025.1.1,Win32,60.24096386,,,,,,,,,,,,,,,,,,,,,,,,,,,,,,,,,,,,,,,,,,,,,,,,,,,,,,,,,,,,,,,,,,,,,,,,,,,,,,,,,,,,,,,,,17,0,17,0,1,,,,,,,,,,,,,,,,,,,,,,,,,,,,,
,,,,,652c5f38cf13042034313b91,2026-02-02_11h16.06.077,causal,2025.1.1,Win32,60.24096386,,,,,,,,,,,,,,,,,,,,,,,,,,,,,,,,790.5874,791.2708,791.2708,791.2708,catch,799.7623,799.7625,792.7774,795.2433,miss,stimuli/collisions/miss/stim3.mp4,space,2.1004,,TRUE,795.2487,795.2616,,0,[],[],red,green,blue,,,795.2629,797.086,0,[],[],1,[797.1087999999523],[797.1087999999523],797.0866,799.7607,1.8996,-25,TRUE,FALSE,799.7608,799.7609,,,,799.7626,799.7636,,,,,,0,0,0,0,1,,,,,,,,,,,,,,,,,,,,,,,,,,,,,,,,,,
,,,,,652c5f38cf13042034313b91,2026-02-02_11h16.06.077,causal,2025.1.1,Win32,60.24096386,,,,,,,,,,,,,,,,,,,,,,,,,,,,,,,,,,,,,,,,,,,,,,,,,,,,,,,,,,,,,,,,,,,,,,,,,,,,,,,,,,,,,,,,,18,0,18,0,1,,,,,,,,,,,,,,,,,,,,,,,,,,,,,
,,,,,652c5f38cf13042034313b91,2026-02-02_11h16.06.077,causal,2025.1.1,Win32,60.24096386,,,,,,,,,,,,,,,,,,,,,,,,,,,,,,,,799.764,800.7602,800.7603,800.7606,test,814.3457,814.3459,802.2769,805.3668,blue,stimuli/collisions/hit/stim12.mp4,f,2.7402,,TRUE,805.3714,810.0951,34,1,[0.7662999999522526],[0.7662999999522526],red,green,blue,76,28,810.0976,810.9604,0,[],[],1,[810.9824000000954],[810.9824000000954],810.9609,814.3438,1.3698,5,TRUE,FALSE,814.3439,814.3441,,,,814.3459,814.347,,,,,,0,0,0,0,1,,,,,,,,,,,,,,,,,,,,,,,,,,,,,,,,,,
,,,,,652c5f38cf13042034313b91,2026-02-02_11h16.06.077,causal,2025.1.1,Win32,60.24096386,,,,,,,,,,,,,,,,,,,,,,,,,,,,,,,,,,,,,,,,,,,,,,,,,,,,,,,,,,,,,,,,,,,,,,,,,,,,,,,,,,,,,,,,,19,0,19,0,1,,,,,,,,,,,,,,,,,,,,,,,,,,,,,
,,,,,652c5f38cf13042034313b91,2026-02-02_11h16.06.077,causal,2025.1.1,Win32,60.24096386,,,,,,,,,,,,,,,,,,,,,,,,,,,,,,,,814.3475,815.0437,815.0438,815.044,test,826.8444,826.8447,816.5611,818.91,red,stimuli/collisions/hit/stim1.mp4,j,1.9932,,TRUE,818.9149,822.6281,34,1,[0.7321999998092679],[0.7321999998092679],red,green,blue,34,84,822.6304,823.3932,0,[],[],1,[823.4157000000478],[823.4157000000478],823.3937,826.8431,1.3768,35,TRUE,FALSE,826.8431,826.8434,,,,826.8448,826.8452,,,,,,0,0,0,0,1,,,,,,,,,,,,,,,,,,,,,,,,,,,,,,,,,,
,,,,,652c5f38cf13042034313b91,2026-02-02_11h16.06.077,causal,2025.1.1,Win32,60.24096386,,,,,,,,,,,,,,,,,,,,,,,,,,,,,,,,,,,,,,,,,,,,,,,,,,,,,,,,,,,,,,,,,,,,,,,,,,,,,,,,,,,,,,,,,20,0,20,0,1,,,,,,,,,,,,,,,,,,,,,,,,,,,,,
,,,,,652c5f38cf13042034313b91,2026-02-02_11h16.06.077,causal,2025.1.1,Win32,60.24096386,,,,,,,,,,,,,,,,,,,,,,,,,,,,,,,,826.8456,827.5766,827.5766,827.5768,test,857.4374,858.4432,829.0947,831.71,miss,stimuli/collisions/hit/stim10.mp4,space,2.2592,,TRUE,831.7147,831.7212,,0,[],[],red,green,blue,,,831.7226,833.1436,0,[],[],1,[833.166100000143],[833.1662000000478],833.1446,835.1939,1.9808,-5,TRUE,TRUE,835.194,837.2931,"[""space""]",[0.06609999990462256],[null],858.4433,859.9701,f,1.1674,,9,"[1.26,0.63,0.73,0.71,0.5,0.58,0.6,0.77,1.17]",9,0,9,0,1,,,,,,,,,,,,,,,,,,,,,,,,,,,,,,,,,,
,,,,,652c5f38cf13042034313b91,2026-02-02_11h16.06.077,causal,2025.1.1,Win32,60.24096386,,,,,,,,,,,,,,,,,,,,,,,,,,,,,,,,,,,,,,,,,,,,,,,,,,,,,,,,,,,,,,,,,,,,,,,,,,,,,,,,,,,,,,,,,21,0,21,0,1,,,,,,,,,,,,,,,,,,,,,,,,,,,,,
,,,,,652c5f38cf13042034313b91,2026-02-02_11h16.06.077,causal,2025.1.1,Win32,60.24096386,,,,,,,,,,,,,,,,,,,,,,,,,,,,,,,,859.9707,860.6547,860.6548,860.6549,test,874.0623,874.0626,862.1607,864.9011,red,stimuli/collisions/hit/stim14.mp4,j,2.3824,,TRUE,864.9051,869.0622,20,1,[0.5998000001907258],[0.5998000001907258],red,green,blue,22,84,869.064,869.9604,0,[],[],1,[869.9826000001431],[869.9826000001431],869.9609,874.0606,0.5576,20,TRUE,FALSE,874.0607,874.0609,,,,874.0627,874.0636,,,,,,0,0,0,0,1,,,,,,,,,,,,,,,,,,,,,,,,,,,,,,,,,,
,,,,,652c5f38cf13042034313b91,2026-02-02_11h16.06.077,causal,2025.1.1,Win32,60.24096386,,,,,,,,,,,,,,,,,,,,,,,,,,,,,,,,,,,,,,,,,,,,,,,,,,,,,,,,,,,,,,,,,,,,,,,,,,,,,,,,,,,,,,,,,22,0,22,0,1,,,,,,,,,,,,,,,,,,,,,,,,,,,,,
,,,,,652c5f38cf13042034313b91,2026-02-02_11h16.06.077,causal,2025.1.1,Win32,60.24096386,,,,,,,,,,,,,,,,,,,,,,,,,,,,,,,,874.0639,875.7939,875.794,875.7941,test,908.3045,909.31,877.3115,880.1509,miss,stimuli/collisions/hit/stim15.mp4,space,2.4919,,TRUE,880.1552,880.1623,,0,[],[],red,green,blue,,,880.1638,882.4266,0,[],[],1,[882.4492000000478],[882.4492000000478],882.4271,885.0272,2.1481,-20,TRUE,TRUE,885.0274,889.3097,"[""space""]",[2.250800000190793],[null],909.3101,910.6867,k,1.0175,,9,"[0.95,0.57,0.45,0.53,0.58,0.56,0.58,0.5,1.02]",9,0,9,0,1,,,,,,,,,,,,,,,,,,,,,,,,,,,,,,,,,,
,,,,,652c5f38cf13042034313b91,2026-02-02_11h16.06.077,causal,2025.1.1,Win32,60.24096386,,,,,,,,,,,,,,,,,,,,,,,,,,,,,,,,,,,,,,,,,,,,,,,,,,,,,,,,,,,,,,,,,,,,,,,,,,,,,,,,,,,,,,,,,23,0,23,0,1,,,,,,,,,,,,,,,,,,,,,,,,,,,,,
,,,,,652c5f38cf13042034313b91,2026-02-02_11h16.06.077,causal,2025.1.1,Win32,60.24096386,,,,,,,,,,,,,,,,,,,,,,,,,,,,,,,,910.6872,911.2309,911.231,911.231,test,953.2454,954.2609,912.7444,915.51,red,stimuli/collisions/hit/stim9.mp4,j,2.4002,,TRUE,915.5144,919.1781,27,1,[0.6499999999999773],[0.6499999999999773],red,green,blue,33,81,919.1803,920.1112,0,[],[],1,[920.1329000000954],[920.1329000000954],920.1116,922.6771,0.5698,5,TRUE,TRUE,922.6772,925.8934,"[""space""]",[1.1850999999046508],[null],954.261,955.3781,k,0.7627,,9,"[1,1.54,1.65,2.19,0.55,0.55,1.86,0.43,0.76]",9,0,9,0,1,,,,,,,,,,,,,,,,,,,,,,,,,,,,,,,,,,
,,,,,652c5f38cf13042034313b91,2026-02-02_11h16.06.077,causal,2025.1.1,Win32,60.24096386,,,,,,,,,,,,,,,,,,,,,,,,,,,,,,,,,,,,,,,,,,,,,,,,,,,,,,,,,,,,,,,,,,,,,,,,,,,,,,,,,,,,,,,,,24,0,24,0,1,,,,,,,,,,,,,,,,,,,,,,,,,,,,,
,,,,,652c5f38cf13042034313b91,2026-02-02_11h16.06.077,causal,2025.1.1,Win32,60.24096386,,,,,,,,,,,,,,,,,,,,,,,,,,,,,,,,955.3787,956.1775,956.1776,956.1777,test,968.8956,968.8957,957.6944,960.1273,blue,stimuli/collisions/hit/stim16.mp4,f,2.0832,,TRUE,960.1317,964.7291,11,1,[0.75],[0.75],red,green,blue,87,14,964.7313,965.6777,0,[],[],1,[965.6999000000955],[965.6999000000955],965.6783,968.8941,0.7268,30,TRUE,FALSE,968.8941,968.8943,,,,968.8958,968.8965,,,,,,0,0,0,0,1,,,,,,,,,,,,,,,,,,,,,,,,,,,,,,,,,,
,,,,,652c5f38cf13042034313b91,2026-02-02_11h16.06.077,causal,2025.1.1,Win32,60.24096386,,,,,,,,,,,,,,,,,,,,,,,,,,,,,,,,,,,,,,,,,,,,,,,,,,,,,,,,,,,,,,,,,,,,,,,,,,,,,,,,,,,,,,,,,25,0,25,0,1,,,,,,,,,,,,,,,,,,,,,,,,,,,,,
,,,,,652c5f38cf13042034313b91,2026-02-02_11h16.06.077,causal,2025.1.1,Win32,60.24096386,,,,,,,,,,,,,,,,,,,,,,,,,,,,,,,,968.8969,969.8443,969.8443,969.8445,test,981.946,981.9462,971.3615,974.2531,blue,stimuli/collisions/hit/stim4.mp4,f,2.5403,,TRUE,974.2581,978.6616,29,1,[1.0999000000953174],[1.0999000000953174],red,green,blue,82,30,978.6636,979.3101,0,[],[],1,[979.3325000000001],[979.3325000000001],979.3105,981.9438,1.4697,60,TRUE,FALSE,981.944,981.9443,,,,981.9463,981.9472,,,,,,0,0,0,0,1,,,,,,,,,,,,,,,,,,,,,,,,,,,,,,,,,,
,,,,,652c5f38cf13042034313b91,2026-02-02_11h16.06.077,causal,2025.1.1,Win32,60.24096386,,,,,,,,,,,,,,,,,,,,,,,,,,,,,,,,,,,,,,,,,,,,,,,,,,,,,,,,,,,,,,,,,,,,,,,,,,,,,,,,,,,,,,,,,26,0,26,0,1,,,,,,,,,,,,,,,,,,,,,,,,,,,,,
,,,,,652c5f38cf13042034313b91,2026-02-02_11h16.06.077,causal,2025.1.1,Win32,60.24096386,,,,,,,,,,,,,,,,,,,,,,,,,,,,,,,,,,,,,,,,,,,,,,,,,,,,,,,,,,,,,,,,,,,,,,,,,,,,,,,,,,,,,,,,,,,,,,981.9478,1008.111,,,,,,,,,,,,,,,,,,,,,,,,,,,
,,,,,652c5f38cf13042034313b91,2026-02-02_11h16.06.077,causal,2025.1.1,Win32,60.24096386,,,,,,,,,,,,,,,,,,,,,,,,,,,,,,,,,,,,,,,,,,,,,,,,,,,,,,,,,,,,,,,,,,,,,,,,,,,,,,,,,,,,,,,,,,,,,,,,1008.1113,1046.1611,,,,,,,,,,,,,,,,,,,,,,,,,
,,,,,652c5f38cf13042034313b91,2026-02-02_11h16.06.077,causal,2025.1.1,Win32,60.24096386,,,,,,,,,,,,,,,,,,,,,,,,,,,,,,,,1046.1631,1049.127,,,,1049.1291,1050.6431,,,,stimuli/collisions/calibration/stim12.mp4,,,,,,,,,,,,,,,,,,,,,,,,,,,,,,,,,,,,,,,,,,,,,,,,,,,,,,,,1049.1286,1049.129,1050.6442,1053.4697,1053.4714,1055.4047,0,[],[],1,[1055.4077999999522],[1055.4077999999522],TRUE,FALSE,FALSE,1055.4051,1057.4877,"[""space""]",[1.0507000000477547],[null],0,0,0,0,1
,,,,,652c5f38cf13042034313b91,2026-02-02_11h16.06.077,causal,2025.1.1,Win32,60.24096386,,,,,,,,,,,,,,,,,,,,,,,,,,,,,,,,1057.4886,1058.3441,,,,1058.3445,1059.8602,,,,stimuli/collisions/calibration/stim1.mp4,,,,,,,,,,,,,,,,,,,,,,,,,,,,,,,,,,,,,,,,,,,,,,,,,,,,,,,,1058.3444,1058.3444,1059.861,1063.1929,1063.1956,1064.2439,1,[1064.247600000143],[1064.247600000143],0,[],[],FALSE,FALSE,TRUE,1064.244,1066.3441,"[""space""]",[1.0649999999998272],[null],1,0,1,0,1
,,,,,652c5f38cf13042034313b91,2026-02-02_11h16.06.077,causal,2025.1.1,Win32,60.24096386,,,,,,,,,,,,,,,,,,,,,,,,,,,,,,,,1066.3448,1067.1272,,,,1067.1285,1068.6437,,,,stimuli/collisions/calibration/stim4.mp4,,,,,,,,,,,,,,,,,,,,,,,,,,,,,,,,,,,,,,,,,,,,,,,,,,,,,,,,1067.1277,1067.1284,1068.6441,1071.4102,1071.4147,1072.1771,0,[],[],1,[1072.1802999999522],[1072.1802999999522],TRUE,TRUE,TRUE,1072.1772,1073.9121,"[""space""]",[0.7066000001432258],[null],2,0,2,0,1
,,,,,652c5f38cf13042034313b91,2026-02-02_11h16.06.077,causal,2025.1.1,Win32,60.24096386,,,,,,,,,,,,,,,,,,,,,,,,,,,,,,,,1073.9125,1074.7939,,,,1074.7942,1076.3104,,,,stimuli/collisions/calibration/stim16.mp4,,,,,,,,,,,,,,,,,,,,,,,,,,,,,,,,,,,,,,,,,,,,,,,,,,,,,,,,1074.7941,1074.7942,1076.3115,1079.9431,1079.9465,1080.8433,1,[1080.8473000001907],[1080.8473000001907],0,[],[],FALSE,FALSE,TRUE,1080.8436,1082.7107,"[""space""]",[0.8489000000952274],[null],3,0,3,0,1
,,,,,652c5f38cf13042034313b91,2026-02-02_11h16.06.077,causal,2025.1.1,Win32,60.24096386,,,,,,,,,,,,,,,,,,,,,,,,,,,,,,,,1082.7113,1084.044,,,,1084.0448,1085.5618,,,,stimuli/collisions/calibration/stim8.mp4,,,,,,,,,,,,,,,,,,,,,,,,,,,,,,,,,,,,,,,,,,,,,,,,,,,,,,,,1084.0446,1084.0448,1085.5626,1089.0939,1089.0996,1089.56,1,[1089.5638000001907],[1089.5638000001907],0,[],[],FALSE,FALSE,TRUE,1089.5602,1091.1275,"[""space""]",[0.5523999998570162],[null],4,0,4,0,1
,,,,,652c5f38cf13042034313b91,2026-02-02_11h16.06.077,causal,2025.1.1,Win32,60.24096386,,,,,,,,,,,,,,,,,,,,,,,,,,,,,,,,1091.1279,1092.177,,,,1092.178,1093.6947,,,,stimuli/collisions/calibration/stim17.mp4,,,,,,,,,,,,,,,,,,,,,,,,,,,,,,,,,,,,,,,,,,,,,,,,,,,,,,,,1092.1777,1092.178,1093.6953,1096.894,1096.8983,1097.2605,1,[1097.2642000000476],[1097.2642000000476],0,[],[],FALSE,TRUE,FALSE,1097.2607,1098.7441,"[""space""]",[0.4512000000477201],[null],5,0,5,0,1
,,,,,652c5f38cf13042034313b91,2026-02-02_11h16.06.077,causal,2025.1.1,Win32,60.24096386,,,,,,,,,,,,,,,,,,,,,,,,,,,,,,,,1098.7447,1099.3937,,,,1099.3946,1100.9111,,,,stimuli/collisions/calibration/stim19.mp4,,,,,,,,,,,,,,,,,,,,,,,,,,,,,,,,,,,,,,,,,,,,,,,,,,,,,,,,1099.3943,1099.3945,1100.9117,1103.9609,1103.9656,1104.41,1,[1104.4139000000953],[1104.4139000000953],0,[],[],FALSE,FALSE,TRUE,1104.4101,1105.8442,"[""space""]",[0.3976000001430293],[null],6,0,6,0,1
,,,,,652c5f38cf13042034313b91,2026-02-02_11h16.06.077,causal,2025.1.1,Win32,60.24096386,,,,,,,,,,,,,,,,,,,,,,,,,,,,,,,,1105.845,1106.4106,,,,1106.4114,1107.9274,,,,stimuli/collisions/calibration/stim18.mp4,,,,,,,,,,,,,,,,,,,,,,,,,,,,,,,,,,,,,,,,,,,,,,,,,,,,,,,,1106.4111,1106.4114,1107.9285,1111.3273,1111.3307,1111.8606,1,[1111.8643000001907],[1111.8643000001907],0,[],[],FALSE,FALSE,TRUE,1111.8608,1113.6603,"[""space""]",[0.769299999952409],[null],7,0,7,0,1
,,,,,652c5f38cf13042034313b91,2026-02-02_11h16.06.077,causal,2025.1.1,Win32,60.24096386,,,,,,,,,,,,,,,,,,,,,,,,,,,,,,,,1113.661,1114.7266,,,,1114.7274,1116.244,,,,stimuli/collisions/calibration/stim13.mp4,,,,,,,,,,,,,,,,,,,,,,,,,,,,,,,,,,,,,,,,,,,,,,,,,,,,,,,,1114.7271,1114.7273,1116.2452,1119.169,1119.1738,1119.5703,0,[],[],1,[1119.5739000000954],[1119.5739000000954],TRUE,FALSE,FALSE,1119.5704,1121.2038,"[""space""]",[0.6175000000000637],[null],8,0,8,0,1
,,,,,652c5f38cf13042034313b91,2026-02-02_11h16.06.077,causal,2025.1.1,Win32,60.24096386,,,,,,,,,,,,,,,,,,,,,,,,,,,,,,,,1121.2043,1121.8715,,,,1121.8726,1123.3863,,,,stimuli/collisions/calibration/stim6.mp4,,,,,,,,,,,,,,,,,,,,,,,,,,,,,,,,,,,,,,,,,,,,,,,,,,,,,,,,1121.8718,1121.8726,1123.3871,1126.0606,1126.0651,1126.4765,0,[],[],1,[1126.4800999999045],[1126.4800999999045],TRUE,FALSE,FALSE,1126.4767,1128.4274,"[""space""]",[0.9164999999998145],[null],9,0,9,0,1
,,,,,652c5f38cf13042034313b91,2026-02-02_11h16.06.077,causal,2025.1.1,Win32,60.24096386,,,,,,,,,,,,,,,,,,,,,,,,,,,,,,,,1128.4278,1129.0272,,,,1129.0279,1130.5443,,,,stimuli/collisions/calibration/stim20.mp4,,,,,,,,,,,,,,,,,,,,,,,,,,,,,,,,,,,,,,,,,,,,,,,,,,,,,,,,1129.0275,1129.0279,1130.5453,1133.3028,1133.3064,1133.6878,0,[],[],1,[1133.6912999999522],[1133.6914000000952],TRUE,TRUE,TRUE,1133.688,1134.7937,"[""space""]",[0.08170000004770372],[null],10,0,10,0,1
,,,,,652c5f38cf13042034313b91,2026-02-02_11h16.06.077,causal,2025.1.1,Win32,60.24096386,,,,,,,,,,,,,,,,,,,,,,,,,,,,,,,,1134.7942,1135.2361,,,,1135.2366,1136.7521,,,,stimuli/collisions/calibration/stim2.mp4,,,,,,,,,,,,,,,,,,,,,,,,,,,,,,,,,,,,,,,,,,,,,,,,,,,,,,,,1135.2364,1135.2365,1136.753,1140.4451,1140.4493,1141.2043,0,[],[],1,[1141.2077999999522],[1141.2077999999522],TRUE,TRUE,TRUE,1141.2044,1142.5436,"[""space""]",[0.3025000000000091],[null],11,0,11,0,1
,,,,,652c5f38cf13042034313b91,2026-02-02_11h16.06.077,causal,2025.1.1,Win32,60.24096386,,,,,,,,,,,,,,,,,,,,,,,,,,,,,,,,1142.5442,1143.1382,,,,1143.1389,1144.6535,,,,stimuli/collisions/calibration/stim10.mp4,,,,,,,,,,,,,,,,,,,,,,,,,,,,,,,,,,,,,,,,,,,,,,,,,,,,,,,,1143.1385,1143.1386,1144.6545,1147.4188,1147.4238,1147.8198,0,[],[],1,[1147.8232000000476],[1147.8232000000476],TRUE,TRUE,TRUE,1147.82,1149.1782,"[""space""]",[0.32519999980945613],[null],12,0,12,0,1
,,,,,652c5f38cf13042034313b91,2026-02-02_11h16.06.077,causal,2025.1.1,Win32,60.24096386,,,,,,,,,,,,,,,,,,,,,,,,,,,,,,,,1149.1788,1149.81,,,,1149.8104,1151.3209,,,,stimuli/collisions/calibration/stim3.mp4,,,,,,,,,,,,,,,,,,,,,,,,,,,,,,,,,,,,,,,,,,,,,,,,,,,,,,,,1149.8103,1149.8104,1151.3216,1155.4432,1155.4464,1155.9436,1,[1155.9473000001906],[1155.9473000001906],0,[],[],FALSE,FALSE,TRUE,1155.9438,1157.9932,"[""space""]",[1.0211999998093688],[null],13,0,13,0,1
,,,,,652c5f38cf13042034313b91,2026-02-02_11h16.06.077,causal,2025.1.1,Win32,60.24096386,,,,,,,,,,,,,,,,,,,,,,,,,,,,,,,,1157.9937,1158.5437,,,,1158.5446,1160.061,,,,stimuli/collisions/calibration/stim11.mp4,,,,,,,,,,,,,,,,,,,,,,,,,,,,,,,,,,,,,,,,,,,,,,,,,,,,,,,,1158.5443,1158.5445,1160.0621,1162.9673,1162.9713,1163.2697,0,[],[],1,[1163.2734000000953],[1163.2734000000953],TRUE,TRUE,TRUE,1163.2698,1164.7705,"[""space""]",[0.4672000000475691],[null],14,0,14,0,1
,,,,,652c5f38cf13042034313b91,2026-02-02_11h16.06.077,causal,2025.1.1,Win32,60.24096386,,,,,,,,,,,,,,,,,,,,,,,,,,,,,,,,1164.7709,1165.2883,,,,1165.2887,1166.7939,,,,stimuli/collisions/calibration/stim5.mp4,,,,,,,,,,,,,,,,,,,,,,,,,,,,,,,,,,,,,,,,,,,,,,,,,,,,,,,,1165.2885,1165.2887,1166.7947,1170.9987,1171.001,1171.6684,1,[1171.6724000000952],[1171.6724000000952],0,[],[],FALSE,FALSE,TRUE,1171.6684,1173.0766,"[""space""]",[0.38420000004748545],[null],15,0,15,0,1
,,,,,652c5f38cf13042034313b91,2026-02-02_11h16.06.077,causal,2025.1.1,Win32,60.24096386,,,,,,,,,,,,,,,,,,,,,,,,,,,,,,,,1173.077,1173.5765,,,,1173.5768,1175.0934,,,,stimuli/collisions/calibration/stim14.mp4,,,,,,,,,,,,,,,,,,,,,,,,,,,,,,,,,,,,,,,,,,,,,,,,,,,,,,,,1173.5767,1173.5768,1175.094,1178.5433,1178.5478,1179.0263,0,[],[],1,[1179.0299000000953],[1179.0299000000953],TRUE,FALSE,FALSE,1179.0264,1180.6938,"[""space""]",[0.6354000000953874],[null],16,0,16,0,1
,,,,,652c5f38cf13042034313b91,2026-02-02_11h16.06.077,causal,2025.1.1,Win32,60.24096386,,,,,,,,,,,,,,,,,,,,,,,,,,,,,,,,1180.6945,1182.4269,,,,1182.4278,1183.9359,,,,stimuli/collisions/calibration/stim7.mp4,,,,,,,,,,,,,,,,,,,,,,,,,,,,,,,,,,,,,,,,,,,,,,,,,,,,,,,,1182.4276,1182.4278,1183.9368,1186.6104,1186.6158,1186.9938,0,[],[],1,[1186.9972999999522],[1186.9972999999522],TRUE,TRUE,TRUE,1186.9938,1188.5101,"[""space""]",[0.4829000000952419],[null],17,0,17,0,1
,,,,,652c5f38cf13042034313b91,2026-02-02_11h16.06.077,causal,2025.1.1,Win32,60.24096386,,,,,,,,,,,,,,,,,,,,,,,,,,,,,,,,1188.5106,1189.0774,,,,1189.0782,1190.594,,,,stimuli/collisions/calibration/stim9.mp4,,,,,,,,,,,,,,,,,,,,,,,,,,,,,,,,,,,,,,,,,,,,,,,,,,,,,,,,1189.0778,1189.0781,1190.5951,1193.6935,1193.6985,1194.2043,1,[1194.2082000000476],[1194.2082000000476],0,[],[],FALSE,FALSE,TRUE,1194.2044,1195.6385,"[""space""]",[0.4172999999523199],[null],18,0,18,0,1
,,,,,652c5f38cf13042034313b91,2026-02-02_11h16.06.077,causal,2025.1.1,Win32,60.24096386,,,,,,,,,,,,,,,,,,,,,,,,,,,,,,,,1195.6394,1196.1541,,,,1196.1546,1197.6693,,,,stimuli/collisions/calibration/stim15.mp4,,,,,,,,,,,,,,,,,,,,,,,,,,,,,,,,,,,,,,,,,,,,,,,,,,,,,,,,1196.1544,1196.1545,1197.6705,1200.9937,1200.9991,1201.3777,1,[1201.381600000143],[1201.381600000143],0,[],[],FALSE,TRUE,FALSE,1201.3777,1203.1272,"[""space""]",[0.7192000000477492],[null],19,0,19,0,1
