intro.started,intro.stopped,button_6.numClicks,button_6.timesOn,button_6.timesOff,participant,date,expName,psychopyVersion,OS,frameRate,timing_info.started,timing_info.stopped,button_7.numClicks,button_7.timesOn,button_7.timesOff,hand_positions.started,hand_positions.stopped,space_bar.keys,space_bar.rt,space_bar.duration,train_keys.started,train_keys.stopped,key_resp.keys,key_resp.rt,key_resp.duration,score.started,score.stopped,training_rounds,training.thisRepN,training.thisTrialN,training.thisN,training.thisIndex,training.ran,test_instruct.started,test_instruct.stopped,instruct_cont.started,instruct_cont.stopped,point_instruct.started,point_instruct.stopped,accident_instruct.started,accident_instruct.stopped,advance.started,advance.stopped,flip_video.started,flip_video.stopped,trial_type,buffer.started,buffer.stopped,collision.started,collision.stopped,selection,stimuli_path,select_resp.keys,select_resp.rt,select_resp.duration,resp_trial,responsibility.started,responsibility.stopped,conf_2.response,button.numClicks,button.timesOn,button.timesOff,conf_one,conf_two,conf_three,conf_3.response,conf_1.response,forfeit.started,forfeit.stopped,forfeit_button.numClicks,forfeit_button.timesOn,forfeit_button.timesOff,keep_button.numClicks,keep_button.timesOn,keep_button.timesOff,accuracy.started,accuracy.stopped,rt_diff,acc_points,keep_round,practice_round,begin_review.started,begin_review.stopped,space_bar_6.keys,space_bar_6.rt,space_bar_6.duration,review_keys.started,review_keys.stopped,key_resp_2.keys,key_resp_2.rt,key_resp_2.duration,review_trials,baseline_rts,review.thisRepN,review.thisTrialN,review.thisN,review.thisIndex,review.ran,trials.thisRepN,trials.thisTrialN,trials.thisN,trials.thisIndex,trials.ran,transition.started,transition.stopped,calibrate_instruct.started,calibrate_instruct.stopped,flip_calibration.started,flip_calibration.stopped,calibrate.started,calibrate.stopped,prediction.started,prediction.stopped,miss.numClicks,miss.timesOn,miss.timesOff,hit.numClicks,hit.timesOn,hit.timesOff,calibration_pred,calibration_actual,calibration_score,cal_feedback.started,cal_feedback.stopped,space_bar_12.keys,space_bar_12.rt,space_bar_12.duration,calibration.thisRepN,calibration.thisTrialN,calibration.thisN,calibration.thisIndex,calibration.ran
0.0009,7.8346,1,[2.834699999928471],[2.834699999928471],6679af725f681821b6bc1328,2026-02-02_14h37.39.335,causal,2025.1.1,Win32,59.52380952,,,,,,,,,,,,,,,,,,,,,,,,,,,,,,,,,,,,,,,,,,,,,,,,,,,,,,,,,,,,,,,,,,,,,,,,,,,,,,,,,,,,,,,,,,,,,,,,,,,,,,,,,,,,,,,,,,,,,,,,,,
,,,,,6679af725f681821b6bc1328,2026-02-02_14h37.39.335,causal,2025.1.1,Win32,59.52380952,7.8355,13.2409,1,[0.4068000000715273],[0.4068000000715273],,,,,,,,,,,,,,,,,,,,,,,,,,,,,,,,,,,,,,,,,,,,,,,,,,,,,,,,,,,,,,,,,,,,,,,,,,,,,,,,,,,,,,,,,,,,,,,,,,,,,,,,,,,,,,,,,,,,,
,,,,,6679af725f681821b6bc1328,2026-02-02_14h37.39.335,causal,2025.1.1,Win32,59.52380952,,,,,,13.2416,28.0522,"[""space"",""space""]","[2.3311999999284723,11.748299999952316]","[null,null]",,,,,,,,,,,,,,,,,,,,,,,,,,,,,,,,,,,,,,,,,,,,,,,,,,,,,,,,,,,,,,,,,,,,,,,,,,,,,,,,,,,,,,,,,,,,,,,,,,,,,,,,,,,,,,,,
,,,,,6679af725f681821b6bc1328,2026-02-02_14h37.39.335,causal,2025.1.1,Win32,59.52380952,,,,,,,,,,,78.9642,79.9806,k,0.651,,79.9815,83.0076,1,0,0,0,0,1,,,,,,,,,,,,,,,,,,,,,,,,,,,,,,,,,,,,,,,,,,,,,,,,,,,,,,,,,,,,,,,,,,,,,,,,,,,,,,,,,,,,,,,,,,,,,,,,,,,
,,,,,6679af725f681821b6bc1328,2026-02-02_14h37.39.335,causal,2025.1.1,Win32,59.52380952,,,,,,,,,,,,,,,,,,,,,,,,83.04,89.2416,,,,,,,,,,,,,,,,,,,,,,,,,,,,,,,,,,,,,,,,,,,,,,,,,,,,,,,,,,,,,,,,,,,,,,,,,,,,,,,,,,,,,,,,,,,,,,,,,
,,,,,6679af725f681821b6bc1328,2026-02-02_14h37.39.335,causal,2025.1.1,Win32,59.52380952,,,,,,,,,,,,,,,,,,,,,,,,,,89.2421,97.0094,,,,,,,,,,,,,,,,,,,,,,,,,,,,,,,,,,,,,,,,,,,,,,,,,,,,,,,,,,,,,,,,,,,,,,,,,,,,,,,,,,,,,,,,,,,,,,,
,,,,,6679af725f681821b6bc1328,2026-02-02_14h37.39.335,causal,2025.1.1,Win32,59.52380952,,,,,,,,,,,,,,,,,,,,,,,,,,,,97.0098,105.2285,,,,,,,,,,,,,,,,,,,,,,,,,,,,,,,,,,,,,,,,,,,,,,,,,,,,,,,,,,,,,,,,,,,,,,,,,,,,,,,,,,,,,,,,,,,,,
,,,,,6679af725f681821b6bc1328,2026-02-02_14h37.39.335,causal,2025.1.1,Win32,59.52380952,,,,,,,,,,,,,,,,,,,,,,,,,,,,,,105.2289,110.0106,,,,,,,,,,,,,,,,,,,,,,,,,,,,,,,,,,,,,,,,,,,,,,,,,,,,,,,,,,,,,,,,,,,,,,,,,,,,,,,,,,,,,,,,,,,
,,,,,6679af725f681821b6bc1328,2026-02-02_14h37.39.335,causal,2025.1.1,Win32,59.52380952,,,,,,,,,,,,,,,,,,,,,,,,,,,,,,,,110.0455,111.2443,111.2453,111.2458,train,154.1549,155.1655,112.7531,116.0838,red,stimuli/collisions/training/stim1.mp4,j,2.8525,,TRUE,116.089,126.4156,0,1,[0.7338999999761597],[0.7338999999761597],red,green,blue,0,100,126.4162,127.9298,0,[],[],1,[127.9554000000954],[127.9554000000954],127.931,131.6133,1.2875,30,TRUE,TRUE,131.6138,134.7303,"[""space""]",[1.084200000047673],[null],155.1657,156.1551,k,0.6212,,9,"[1.39,0.55,0.59,0.45,1.19,0.65,1.03,0.57,0.53,0.62]",9,0,9,0,1,,,,,,,,,,,,,,,,,,,,,,,,,,,,,,,,,,
,,,,,6679af725f681821b6bc1328,2026-02-02_14h37.39.335,causal,2025.1.1,Win32,59.52380952,,,,,,,,,,,,,,,,,,,,,,,,,,,,,,,,,,,,,,,,,,,,,,,,,,,,,,,,,,,,,,,,,,,,,,,,,,,,,,,,,,,,,,,,,0,0,0,0,1,,,,,,,,,,,,,,,,,,,,,,,,,,,,,
,,,,,6679af725f681821b6bc1328,2026-02-02_14h37.39.335,causal,2025.1.1,Win32,59.52380952,,,,,,,,,,,,,,,,,,,,,,,,,,,,,,,,156.1577,157.5152,157.5154,157.5155,train,172.4727,172.4729,159.0636,161.3156,green,stimuli/collisions/training/stim3.mp4,k,1.907,,TRUE,161.3213,168.6185,100,1,[0.6997000000476703],[0.6997000000476703],red,green,blue,0,0,168.6226,169.6335,0,[],[],1,[169.65960000002386],[169.65960000002386],169.6357,172.47,1.363,60,TRUE,FALSE,172.4701,172.4702,,,,172.473,172.4742,,,,,,0,0,0,0,1,,,,,,,,,,,,,,,,,,,,,,,,,,,,,,,,,,
,,,,,6679af725f681821b6bc1328,2026-02-02_14h37.39.335,causal,2025.1.1,Win32,59.52380952,,,,,,,,,,,,,,,,,,,,,,,,,,,,,,,,,,,,,,,,,,,,,,,,,,,,,,,,,,,,,,,,,,,,,,,,,,,,,,,,,,,,,,,,,1,0,1,0,1,,,,,,,,,,,,,,,,,,,,,,,,,,,,,
,,,,,6679af725f681821b6bc1328,2026-02-02_14h37.39.335,causal,2025.1.1,Win32,59.52380952,,,,,,,,,,,,,,,,,,,,,,,,,,,,,,,,172.4747,173.3003,173.3004,173.3005,train,182.3206,182.3209,174.8504,178.1064,miss,stimuli/collisions/training/stim2.mp4,space,2.9021,,TRUE,178.1107,178.126,,0,[],[],red,green,blue,,,178.1301,179.701,0,[],[],1,[179.72740000009537],[179.72740000009537],179.7026,182.3179,1.0979,90,TRUE,FALSE,182.3179,182.3182,,,,182.321,182.3222,,,,,,0,0,0,0,1,,,,,,,,,,,,,,,,,,,,,,,,,,,,,,,,,,
,,,,,6679af725f681821b6bc1328,2026-02-02_14h37.39.335,causal,2025.1.1,Win32,59.52380952,,,,,,,,,,,,,,,,,,,,,,,,,,,,,,,,,,,,,,,,,,,,,,,,,,,,,,,,,,,,,,,,,,,,,,,,,,,,,,,,,,,,,,,,,2,0,2,0,1,,,,,,,,,,,,,,,,,,,,,,,,,,,,,
,,,,,6679af725f681821b6bc1328,2026-02-02_14h37.39.335,causal,2025.1.1,Win32,59.52380952,,,,,,,,,,,,,,,,,,,,,,,,,,,,,,,,182.3228,186.1848,186.185,186.1851,catch,194.5384,194.5387,187.7358,190.8577,miss,stimuli/collisions/miss/stim2.mp4,space,2.7679,,TRUE,190.8963,190.9073,,0,[],[],red,green,blue,,,190.9109,192.0356,0,[],[],1,[192.06210000002386],[192.06210000002386],192.0378,194.5359,1.2321,120,TRUE,FALSE,194.536,194.5363,,,,194.5387,194.5404,,,,,,0,0,0,0,1,,,,,,,,,,,,,,,,,,,,,,,,,,,,,,,,,,
,,,,,6679af725f681821b6bc1328,2026-02-02_14h37.39.335,causal,2025.1.1,Win32,59.52380952,,,,,,,,,,,,,,,,,,,,,,,,,,,,,,,,,,,,,,,,,,,,,,,,,,,,,,,,,,,,,,,,,,,,,,,,,,,,,,,,,,,,,,,,,3,0,3,0,1,,,,,,,,,,,,,,,,,,,,,,,,,,,,,
,,,,,6679af725f681821b6bc1328,2026-02-02_14h37.39.335,causal,2025.1.1,Win32,59.52380952,,,,,,,,,,,,,,,,,,,,,,,,,,,,,,,,194.5409,197.0027,197.0044,197.0044,test,211.8898,211.8901,198.5458,201.0921,blue,stimuli/collisions/hit/stim14.mp4,f,2.1945,,TRUE,201.1282,206.9621,0,1,[0.5345000000000084],[0.5345000000000084],red,green,blue,0,100,206.9658,209.1438,1,[209.17030000007153],[209.17030000007153],0,[],[],209.1453,211.8877,0.7455,115,FALSE,FALSE,211.8878,211.888,,,,211.8902,211.8916,,,,,,0,0,0,0,1,,,,,,,,,,,,,,,,,,,,,,,,,,,,,,,,,,
,,,,,6679af725f681821b6bc1328,2026-02-02_14h37.39.335,causal,2025.1.1,Win32,59.52380952,,,,,,,,,,,,,,,,,,,,,,,,,,,,,,,,,,,,,,,,,,,,,,,,,,,,,,,,,,,,,,,,,,,,,,,,,,,,,,,,,,,,,,,,,4,0,4,0,1,,,,,,,,,,,,,,,,,,,,,,,,,,,,,
,,,,,6679af725f681821b6bc1328,2026-02-02_14h37.39.335,causal,2025.1.1,Win32,59.52380952,,,,,,,,,,,,,,,,,,,,,,,,,,,,,,,,211.8922,212.5044,212.5045,212.5046,test,226.2585,226.2591,214.0234,217.5465,red,stimuli/collisions/hit/stim17.mp4,j,3.1652,,TRUE,217.5821,222.5073,0,1,[0.6671000000238223],[0.6671000000238223],red,green,blue,0,100,222.5115,223.4893,0,[],[],1,[223.51520000004768],[223.51520000004768],223.4918,226.2559,1.1448,145,TRUE,FALSE,226.256,226.2563,,,,226.2594,226.2608,,,,,,0,0,0,0,1,,,,,,,,,,,,,,,,,,,,,,,,,,,,,,,,,,
,,,,,6679af725f681821b6bc1328,2026-02-02_14h37.39.335,causal,2025.1.1,Win32,59.52380952,,,,,,,,,,,,,,,,,,,,,,,,,,,,,,,,,,,,,,,,,,,,,,,,,,,,,,,,,,,,,,,,,,,,,,,,,,,,,,,,,,,,,,,,,5,0,5,0,1,,,,,,,,,,,,,,,,,,,,,,,,,,,,,
,,,,,6679af725f681821b6bc1328,2026-02-02_14h37.39.335,causal,2025.1.1,Win32,59.52380952,,,,,,,,,,,,,,,,,,,,,,,,,,,,,,,,226.2613,226.8558,226.8559,226.856,test,242.1775,242.1778,228.3752,231.2284,red,stimuli/collisions/hit/stim5.mp4,j,2.481,,TRUE,231.2648,237.8479,0,1,[0.5504999999999995],[0.5504999999999995],red,green,blue,0,100,237.8517,239.0972,0,[],[],1,[239.1231000000238],[239.1231000000238],239.0995,242.174,1.459,175,TRUE,FALSE,242.1741,242.1744,,,,242.178,242.1793,,,,,,0,0,0,0,1,,,,,,,,,,,,,,,,,,,,,,,,,,,,,,,,,,
,,,,,6679af725f681821b6bc1328,2026-02-02_14h37.39.335,causal,2025.1.1,Win32,59.52380952,,,,,,,,,,,,,,,,,,,,,,,,,,,,,,,,,,,,,,,,,,,,,,,,,,,,,,,,,,,,,,,,,,,,,,,,,,,,,,,,,,,,,,,,,6,0,6,0,1,,,,,,,,,,,,,,,,,,,,,,,,,,,,,
,,,,,6679af725f681821b6bc1328,2026-02-02_14h37.39.335,causal,2025.1.1,Win32,59.52380952,,,,,,,,,,,,,,,,,,,,,,,,,,,,,,,,242.1797,242.8243,242.8244,242.8245,test,256.4282,256.4284,244.3427,247.047,red,stimuli/collisions/hit/stim11.mp4,j,2.3337,,TRUE,247.0511,252.7329,0,1,[0.4490999999046039],[0.4490999999046039],red,green,blue,0,100,252.7366,253.5478,0,[],[],1,[253.57390000009534],[253.57390000009534],253.5492,256.4256,1.2363,205,TRUE,FALSE,256.4256,256.4257,,,,256.4286,256.43,,,,,,0,0,0,0,1,,,,,,,,,,,,,,,,,,,,,,,,,,,,,,,,,,
,,,,,6679af725f681821b6bc1328,2026-02-02_14h37.39.335,causal,2025.1.1,Win32,59.52380952,,,,,,,,,,,,,,,,,,,,,,,,,,,,,,,,,,,,,,,,,,,,,,,,,,,,,,,,,,,,,,,,,,,,,,,,,,,,,,,,,,,,,,,,,7,0,7,0,1,,,,,,,,,,,,,,,,,,,,,,,,,,,,,
,,,,,6679af725f681821b6bc1328,2026-02-02_14h37.39.335,causal,2025.1.1,Win32,59.52380952,,,,,,,,,,,,,,,,,,,,,,,,,,,,,,,,256.4304,257.4608,257.461,257.4611,test,295.5142,296.5296,258.978,262.2985,blue,stimuli/collisions/hit/stim13.mp4,f,2.9505,,TRUE,262.3348,268.1677,0,1,[0.6655000000000086],[0.6655000000000086],red,green,blue,100,0,268.1713,269.1164,0,[],[],1,[269.1425],[269.1425],269.1178,271.627,0.8195,230,TRUE,TRUE,271.6271,274.4117,"[""space""]",[0.7603000000714815],[null],296.5297,297.3808,f,0.5176,,9,"[0.64,2.1,0.57,1.87,0.93,0.4,0.56,0.56,1.02,0.52]",9,0,9,0,1,,,,,,,,,,,,,,,,,,,,,,,,,,,,,,,,,,
,,,,,6679af725f681821b6bc1328,2026-02-02_14h37.39.335,causal,2025.1.1,Win32,59.52380952,,,,,,,,,,,,,,,,,,,,,,,,,,,,,,,,,,,,,,,,,,,,,,,,,,,,,,,,,,,,,,,,,,,,,,,,,,,,,,,,,,,,,,,,,8,0,8,0,1,,,,,,,,,,,,,,,,,,,,,,,,,,,,,
,,,,,6679af725f681821b6bc1328,2026-02-02_14h37.39.335,causal,2025.1.1,Win32,59.52380952,,,,,,,,,,,,,,,,,,,,,,,,,,,,,,,,297.3816,298.0798,298.08,298.0801,test,311.1501,311.1504,299.5989,302.497,blue,stimuli/collisions/hit/stim8.mp4,f,2.5368,,TRUE,302.5019,307.5392,0,1,[0.7160999999046567],[0.7160999999046567],red,green,blue,100,0,307.5427,308.4041,0,[],[],1,[308.4302000000477],[308.4302000000477],308.4057,311.1479,0.8032,255,TRUE,FALSE,311.1479,311.1482,,,,311.1504,311.1516,,,,,,0,0,0,0,1,,,,,,,,,,,,,,,,,,,,,,,,,,,,,,,,,,
,,,,,6679af725f681821b6bc1328,2026-02-02_14h37.39.335,causal,2025.1.1,Win32,59.52380952,,,,,,,,,,,,,,,,,,,,,,,,,,,,,,,,,,,,,,,,,,,,,,,,,,,,,,,,,,,,,,,,,,,,,,,,,,,,,,,,,,,,,,,,,9,0,9,0,1,,,,,,,,,,,,,,,,,,,,,,,,,,,,,
,,,,,6679af725f681821b6bc1328,2026-02-02_14h37.39.335,causal,2025.1.1,Win32,59.52380952,,,,,,,,,,,,,,,,,,,,,,,,,,,,,,,,311.1521,312.4478,312.4479,312.4479,test,328.5025,328.5027,313.9812,316.2817,red,stimuli/collisions/hit/stim9.mp4,j,1.9453,,TRUE,316.2864,320.7563,0,1,[0.5338999999761995],[0.5338999999761995],red,green,blue,0,100,320.7599,321.6163,0,[],[],1,[321.64230000007154],[321.6424000000954],321.6184,328.4998,1.0247,280,TRUE,FALSE,328.4999,328.5,,,,328.5028,328.5036,,,,,,0,0,0,0,1,,,,,,,,,,,,,,,,,,,,,,,,,,,,,,,,,,
,,,,,6679af725f681821b6bc1328,2026-02-02_14h37.39.335,causal,2025.1.1,Win32,59.52380952,,,,,,,,,,,,,,,,,,,,,,,,,,,,,,,,,,,,,,,,,,,,,,,,,,,,,,,,,,,,,,,,,,,,,,,,,,,,,,,,,,,,,,,,,10,0,10,0,1,,,,,,,,,,,,,,,,,,,,,,,,,,,,,
,,,,,6679af725f681821b6bc1328,2026-02-02_14h37.39.335,causal,2025.1.1,Win32,59.52380952,,,,,,,,,,,,,,,,,,,,,,,,,,,,,,,,328.5043,329.7996,329.7998,329.7998,test,344.5375,344.5379,331.319,334.2334,red,stimuli/collisions/hit/stim2.mp4,j,2.5522,,TRUE,334.2665,340.6696,0,1,[0.8006000000238487],[0.8006000000238487],red,green,blue,100,0,340.6731,341.6183,0,[],[],1,[341.64430000007155],[341.64430000007155],341.6205,344.5349,1.3578,310,TRUE,FALSE,344.535,344.5353,,,,344.5382,344.5398,,,,,,0,0,0,0,1,,,,,,,,,,,,,,,,,,,,,,,,,,,,,,,,,,
,,,,,6679af725f681821b6bc1328,2026-02-02_14h37.39.335,causal,2025.1.1,Win32,59.52380952,,,,,,,,,,,,,,,,,,,,,,,,,,,,,,,,,,,,,,,,,,,,,,,,,,,,,,,,,,,,,,,,,,,,,,,,,,,,,,,,,,,,,,,,,11,0,11,0,1,,,,,,,,,,,,,,,,,,,,,,,,,,,,,
,,,,,6679af725f681821b6bc1328,2026-02-02_14h37.39.335,causal,2025.1.1,Win32,59.52380952,,,,,,,,,,,,,,,,,,,,,,,,,,,,,,,,344.5406,345.268,345.2681,345.2681,test,363.1056,363.106,346.7711,349.935,blue,stimuli/collisions/hit/stim4.mp4,f,2.8023,,TRUE,349.971,359.5054,0,1,[2.4672999999522744],[2.4672999999522744],red,green,blue,100,0,359.5093,360.5368,0,[],[],1,[360.5629000000954],[360.5629000000954],360.5391,363.1032,1.2077,340,TRUE,FALSE,363.1033,363.1035,,,,363.1061,363.1074,,,,,,0,0,0,0,1,,,,,,,,,,,,,,,,,,,,,,,,,,,,,,,,,,
,,,,,6679af725f681821b6bc1328,2026-02-02_14h37.39.335,causal,2025.1.1,Win32,59.52380952,,,,,,,,,,,,,,,,,,,,,,,,,,,,,,,,,,,,,,,,,,,,,,,,,,,,,,,,,,,,,,,,,,,,,,,,,,,,,,,,,,,,,,,,,12,0,12,0,1,,,,,,,,,,,,,,,,,,,,,,,,,,,,,
,,,,,6679af725f681821b6bc1328,2026-02-02_14h37.39.335,causal,2025.1.1,Win32,59.52380952,,,,,,,,,,,,,,,,,,,,,,,,,,,,,,,,363.108,363.6703,363.6704,363.6705,test,380.8905,380.8907,365.189,368.9765,green,stimuli/collisions/hit/stim10.mp4,k,3.4164,,TRUE,369.0128,376.4222,100,1,[0.7000000000000455],[0.7000000000000455],red,green,blue,0,0,376.4256,377.2219,0,[],[],1,[377.24780000007155],[377.24780000007155],377.2245,380.8886,0.8236,365,TRUE,FALSE,380.8887,380.8888,,,,380.8908,380.8918,,,,,,0,0,0,0,1,,,,,,,,,,,,,,,,,,,,,,,,,,,,,,,,,,
,,,,,6679af725f681821b6bc1328,2026-02-02_14h37.39.335,causal,2025.1.1,Win32,59.52380952,,,,,,,,,,,,,,,,,,,,,,,,,,,,,,,,,,,,,,,,,,,,,,,,,,,,,,,,,,,,,,,,,,,,,,,,,,,,,,,,,,,,,,,,,13,0,13,0,1,,,,,,,,,,,,,,,,,,,,,,,,,,,,,
,,,,,6679af725f681821b6bc1328,2026-02-02_14h37.39.335,causal,2025.1.1,Win32,59.52380952,,,,,,,,,,,,,,,,,,,,,,,,,,,,,,,,380.8922,381.5725,381.5726,381.5726,test,394.4088,394.4091,383.0911,385.6888,blue,stimuli/collisions/hit/stim18.mp4,f,2.2363,,TRUE,385.7251,390.6236,0,1,[0.7318999999761786],[0.7318999999761786],red,green,blue,100,0,390.6265,391.3235,0,[],[],1,[391.3497000000477],[391.3497000000477],391.3258,394.4064,0.9037,390,TRUE,FALSE,394.4065,394.4067,,,,394.4092,394.4104,,,,,,0,0,0,0,1,,,,,,,,,,,,,,,,,,,,,,,,,,,,,,,,,,
,,,,,6679af725f681821b6bc1328,2026-02-02_14h37.39.335,causal,2025.1.1,Win32,59.52380952,,,,,,,,,,,,,,,,,,,,,,,,,,,,,,,,,,,,,,,,,,,,,,,,,,,,,,,,,,,,,,,,,,,,,,,,,,,,,,,,,,,,,,,,,14,0,14,0,1,,,,,,,,,,,,,,,,,,,,,,,,,,,,,
,,,,,6679af725f681821b6bc1328,2026-02-02_14h37.39.335,causal,2025.1.1,Win32,59.52380952,,,,,,,,,,,,,,,,,,,,,,,,,,,,,,,,394.411,395.0399,395.04,395.04,catch,403.4936,403.4938,396.5587,399.7992,miss,stimuli/collisions/miss/stim1.mp4,space,2.8582,,TRUE,399.8352,399.8453,,0,[],[],red,green,blue,,,399.8475,401.0238,0,[],[],1,[401.05030000007156],[401.05030000007156],401.0258,403.491,1.1418,420,TRUE,FALSE,403.4912,403.4915,,,,403.4939,403.4947,,,,,,0,0,0,0,1,,,,,,,,,,,,,,,,,,,,,,,,,,,,,,,,,,
,,,,,6679af725f681821b6bc1328,2026-02-02_14h37.39.335,causal,2025.1.1,Win32,59.52380952,,,,,,,,,,,,,,,,,,,,,,,,,,,,,,,,,,,,,,,,,,,,,,,,,,,,,,,,,,,,,,,,,,,,,,,,,,,,,,,,,,,,,,,,,15,0,15,0,1,,,,,,,,,,,,,,,,,,,,,,,,,,,,,
,,,,,6679af725f681821b6bc1328,2026-02-02_14h37.39.335,causal,2025.1.1,Win32,59.52380952,,,,,,,,,,,,,,,,,,,,,,,,,,,,,,,,403.4952,404.1244,404.1246,404.1247,catch,433.7454,434.7608,405.6438,409.0807,miss,stimuli/collisions/miss/stim5.mp4,space,3.05,,TRUE,409.1137,409.1205,,0,[],[],red,green,blue,,,409.1226,409.9251,0,[],[],1,[409.9515],[409.9515],409.9271,412.3419,0.95,445,TRUE,TRUE,412.3419,416.0254,"[""space""]",[1.654800000071532],[null],434.7609,435.6451,k,0.5318,,9,"[0.87,0.51,0.57,0.61,0.58,0.56,0.44,0.42,0.52,0.53]",9,0,9,0,1,,,,,,,,,,,,,,,,,,,,,,,,,,,,,,,,,,
,,,,,6679af725f681821b6bc1328,2026-02-02_14h37.39.335,causal,2025.1.1,Win32,59.52380952,,,,,,,,,,,,,,,,,,,,,,,,,,,,,,,,,,,,,,,,,,,,,,,,,,,,,,,,,,,,,,,,,,,,,,,,,,,,,,,,,,,,,,,,,16,0,16,0,1,,,,,,,,,,,,,,,,,,,,,,,,,,,,,
,,,,,6679af725f681821b6bc1328,2026-02-02_14h37.39.335,causal,2025.1.1,Win32,59.52380952,,,,,,,,,,,,,,,,,,,,,,,,,,,,,,,,435.6457,436.2774,436.2776,436.2776,test,450.5479,450.5481,437.7969,441.1336,green,stimuli/collisions/hit/stim15.mp4,k,2.9544,,TRUE,441.169,447.0629,100,1,[0.6502000000476755],[0.6502000000476755],red,green,blue,0,0,447.0662,448.0459,0,[],[],1,[448.07190000009535],[448.07190000009535],448.048,450.5458,1.6856,475,TRUE,FALSE,450.5459,450.5461,,,,450.5482,450.5495,,,,,,0,0,0,0,1,,,,,,,,,,,,,,,,,,,,,,,,,,,,,,,,,,
,,,,,6679af725f681821b6bc1328,2026-02-02_14h37.39.335,causal,2025.1.1,Win32,59.52380952,,,,,,,,,,,,,,,,,,,,,,,,,,,,,,,,,,,,,,,,,,,,,,,,,,,,,,,,,,,,,,,,,,,,,,,,,,,,,,,,,,,,,,,,,17,0,17,0,1,,,,,,,,,,,,,,,,,,,,,,,,,,,,,
,,,,,6679af725f681821b6bc1328,2026-02-02_14h37.39.335,causal,2025.1.1,Win32,59.52380952,,,,,,,,,,,,,,,,,,,,,,,,,,,,,,,,450.55,452.1195,452.1197,452.1197,test,466.1329,466.133,453.6321,456.1186,blue,stimuli/collisions/hit/stim16.mp4,f,2.1027,,TRUE,456.1529,462.9142,0,1,[0.7669999999999959],[0.7669999999999959],red,green,blue,100,0,462.917,463.7308,0,[],[],1,[463.7568000000715],[463.7568000000715],463.7328,466.1308,0.7073,500,TRUE,FALSE,466.1308,466.131,,,,466.1331,466.1344,,,,,,0,0,0,0,1,,,,,,,,,,,,,,,,,,,,,,,,,,,,,,,,,,
,,,,,6679af725f681821b6bc1328,2026-02-02_14h37.39.335,causal,2025.1.1,Win32,59.52380952,,,,,,,,,,,,,,,,,,,,,,,,,,,,,,,,,,,,,,,,,,,,,,,,,,,,,,,,,,,,,,,,,,,,,,,,,,,,,,,,,,,,,,,,,18,0,18,0,1,,,,,,,,,,,,,,,,,,,,,,,,,,,,,
,,,,,6679af725f681821b6bc1328,2026-02-02_14h37.39.335,causal,2025.1.1,Win32,59.52380952,,,,,,,,,,,,,,,,,,,,,,,,,,,,,,,,466.1349,466.9142,466.9142,466.9142,test,481.6175,481.6177,468.4327,471.0064,red,stimuli/collisions/hit/stim1.mp4,j,2.1923,,TRUE,471.0108,477.4561,0,1,[1.866099999904634],[1.866099999904634],red,green,blue,0,100,477.4599,478.3993,0,[],[],1,[478.4252000000477],[478.4252000000477],478.4018,481.6155,1.1777,530,TRUE,FALSE,481.6156,481.6158,,,,481.6178,481.6186,,,,,,0,0,0,0,1,,,,,,,,,,,,,,,,,,,,,,,,,,,,,,,,,,
,,,,,6679af725f681821b6bc1328,2026-02-02_14h37.39.335,causal,2025.1.1,Win32,59.52380952,,,,,,,,,,,,,,,,,,,,,,,,,,,,,,,,,,,,,,,,,,,,,,,,,,,,,,,,,,,,,,,,,,,,,,,,,,,,,,,,,,,,,,,,,19,0,19,0,1,,,,,,,,,,,,,,,,,,,,,,,,,,,,,
,,,,,6679af725f681821b6bc1328,2026-02-02_14h37.39.335,causal,2025.1.1,Win32,59.52380952,,,,,,,,,,,,,,,,,,,,,,,,,,,,,,,,481.6192,482.1654,482.1656,482.1656,test,497.4355,497.4357,483.6843,486.3384,green,stimuli/collisions/hit/stim7.mp4,k,2.273,,TRUE,486.3749,492.7514,100,1,[0.7507999999522781],[0.7507999999522781],red,green,blue,0,0,492.7554,494.4174,0,[],[],1,[494.4433000000715],[494.4433000000715],494.4194,497.4338,0.997,555,TRUE,FALSE,497.4338,497.4339,,,,497.4357,497.437,,,,,,0,0,0,0,1,,,,,,,,,,,,,,,,,,,,,,,,,,,,,,,,,,
,,,,,6679af725f681821b6bc1328,2026-02-02_14h37.39.335,causal,2025.1.1,Win32,59.52380952,,,,,,,,,,,,,,,,,,,,,,,,,,,,,,,,,,,,,,,,,,,,,,,,,,,,,,,,,,,,,,,,,,,,,,,,,,,,,,,,,,,,,,,,,20,0,20,0,1,,,,,,,,,,,,,,,,,,,,,,,,,,,,,
,,,,,6679af725f681821b6bc1328,2026-02-02_14h37.39.335,causal,2025.1.1,Win32,59.52380952,,,,,,,,,,,,,,,,,,,,,,,,,,,,,,,,497.4375,498.484,498.4841,498.4841,test,511.8207,511.821,500.0014,502.3904,green,stimuli/collisions/hit/stim3.mp4,k,2.0216,,TRUE,502.4242,508.7262,100,1,[0.6506000000239283],[0.6506000000239283],red,green,blue,0,0,508.7298,509.6246,0,[],[],1,[509.6507000000477],[509.6507000000477],509.6258,511.8189,1.3184,585,TRUE,FALSE,511.819,511.8191,,,,511.8211,511.8221,,,,,,0,0,0,0,1,,,,,,,,,,,,,,,,,,,,,,,,,,,,,,,,,,
,,,,,6679af725f681821b6bc1328,2026-02-02_14h37.39.335,causal,2025.1.1,Win32,59.52380952,,,,,,,,,,,,,,,,,,,,,,,,,,,,,,,,,,,,,,,,,,,,,,,,,,,,,,,,,,,,,,,,,,,,,,,,,,,,,,,,,,,,,,,,,21,0,21,0,1,,,,,,,,,,,,,,,,,,,,,,,,,,,,,
,,,,,6679af725f681821b6bc1328,2026-02-02_14h37.39.335,causal,2025.1.1,Win32,59.52380952,,,,,,,,,,,,,,,,,,,,,,,,,,,,,,,,511.8226,512.6521,512.6522,512.6522,catch,520.3149,520.3151,514.1718,516.6754,miss,stimuli/collisions/miss/stim3.mp4,space,2.1378,,TRUE,516.7131,516.7214,,0,[],[],red,green,blue,,,516.7236,517.7859,0,[],[],1,[517.8125],[517.8125],517.788,520.3128,1.8622,620,TRUE,FALSE,520.3128,520.313,,,,520.3152,520.3161,,,,,,0,0,0,0,1,,,,,,,,,,,,,,,,,,,,,,,,,,,,,,,,,,
,,,,,6679af725f681821b6bc1328,2026-02-02_14h37.39.335,causal,2025.1.1,Win32,59.52380952,,,,,,,,,,,,,,,,,,,,,,,,,,,,,,,,,,,,,,,,,,,,,,,,,,,,,,,,,,,,,,,,,,,,,,,,,,,,,,,,,,,,,,,,,22,0,22,0,1,,,,,,,,,,,,,,,,,,,,,,,,,,,,,
,,,,,6679af725f681821b6bc1328,2026-02-02_14h37.39.335,causal,2025.1.1,Win32,59.52380952,,,,,,,,,,,,,,,,,,,,,,,,,,,,,,,,520.3166,520.8419,520.842,520.8421,catch,527.6902,527.6905,522.3608,524.5033,miss,stimuli/collisions/miss/stim6.mp4,space,1.7717,,TRUE,524.5405,524.5499,,0,[],[],red,green,blue,,,524.552,525.2867,0,[],[],1,[525.3133000000714],[525.3133000000714],525.2882,527.6872,2.2283,655,TRUE,FALSE,527.6872,527.6874,,,,527.6908,527.6919,,,,,,0,0,0,0,1,,,,,,,,,,,,,,,,,,,,,,,,,,,,,,,,,,
,,,,,6679af725f681821b6bc1328,2026-02-02_14h37.39.335,causal,2025.1.1,Win32,59.52380952,,,,,,,,,,,,,,,,,,,,,,,,,,,,,,,,,,,,,,,,,,,,,,,,,,,,,,,,,,,,,,,,,,,,,,,,,,,,,,,,,,,,,,,,,23,0,23,0,1,,,,,,,,,,,,,,,,,,,,,,,,,,,,,
,,,,,6679af725f681821b6bc1328,2026-02-02_14h37.39.335,causal,2025.1.1,Win32,59.52380952,,,,,,,,,,,,,,,,,,,,,,,,,,,,,,,,527.6924,528.2038,528.2039,528.2039,test,569.4314,570.4414,529.7222,532.9708,green,stimuli/collisions/hit/stim12.mp4,k,2.8709,,TRUE,533.0071,538.4794,100,1,[0.7509000000953847],[0.7509000000953847],red,green,blue,0,0,538.4829,539.995,0,[],[],1,[540.0209000000954],[540.0209000000954],539.997,548.8744,1.2391,685,TRUE,TRUE,548.8744,551.8896,"[""space""]",[0.9904999999999973],[null],570.4416,571.3813,j,0.5712,,9,"[0.9,0.67,0.47,0.49,0.49,0.58,0.47,0.59,0.45,0.57]",9,0,9,0,1,,,,,,,,,,,,,,,,,,,,,,,,,,,,,,,,,,
,,,,,6679af725f681821b6bc1328,2026-02-02_14h37.39.335,causal,2025.1.1,Win32,59.52380952,,,,,,,,,,,,,,,,,,,,,,,,,,,,,,,,,,,,,,,,,,,,,,,,,,,,,,,,,,,,,,,,,,,,,,,,,,,,,,,,,,,,,,,,,24,0,24,0,1,,,,,,,,,,,,,,,,,,,,,,,,,,,,,
,,,,,6679af725f681821b6bc1328,2026-02-02_14h37.39.335,causal,2025.1.1,Win32,59.52380952,,,,,,,,,,,,,,,,,,,,,,,,,,,,,,,,571.3822,572.243,572.2431,572.2431,catch,580.4115,580.4117,573.7494,576.8149,miss,stimuli/collisions/miss/stim4.mp4,space,2.7029,,TRUE,576.8511,576.8625,,0,[],[],red,green,blue,,,576.8658,577.809,0,[],[],1,[577.8354000000953],[577.8354000000953],577.811,580.4091,1.2971,715,TRUE,FALSE,580.4092,580.4095,,,,580.4118,580.4127,,,,,,0,0,0,0,1,,,,,,,,,,,,,,,,,,,,,,,,,,,,,,,,,,
,,,,,6679af725f681821b6bc1328,2026-02-02_14h37.39.335,causal,2025.1.1,Win32,59.52380952,,,,,,,,,,,,,,,,,,,,,,,,,,,,,,,,,,,,,,,,,,,,,,,,,,,,,,,,,,,,,,,,,,,,,,,,,,,,,,,,,,,,,,,,,25,0,25,0,1,,,,,,,,,,,,,,,,,,,,,,,,,,,,,
,,,,,6679af725f681821b6bc1328,2026-02-02_14h37.39.335,causal,2025.1.1,Win32,59.52380952,,,,,,,,,,,,,,,,,,,,,,,,,,,,,,,,580.4132,580.8925,580.8926,580.8927,test,592.2959,592.2961,582.3975,584.2653,red,stimuli/collisions/hit/stim6.mp4,j,1.5046,,TRUE,584.2698,589.0942,0,1,[0.6671999999284708],[0.6671999999284708],red,green,blue,0,100,589.0968,590.0448,0,[],[],1,[590.0706000000238],[590.0706000000238],590.047,592.2938,1.7354,745,TRUE,FALSE,592.2939,592.294,,,,592.2962,592.2971,,,,,,0,0,0,0,1,,,,,,,,,,,,,,,,,,,,,,,,,,,,,,,,,,
,,,,,6679af725f681821b6bc1328,2026-02-02_14h37.39.335,causal,2025.1.1,Win32,59.52380952,,,,,,,,,,,,,,,,,,,,,,,,,,,,,,,,,,,,,,,,,,,,,,,,,,,,,,,,,,,,,,,,,,,,,,,,,,,,,,,,,,,,,,,,,26,0,26,0,1,,,,,,,,,,,,,,,,,,,,,,,,,,,,,
,,,,,6679af725f681821b6bc1328,2026-02-02_14h37.39.335,causal,2025.1.1,Win32,59.52380952,,,,,,,,,,,,,,,,,,,,,,,,,,,,,,,,,,,,,,,,,,,,,,,,,,,,,,,,,,,,,,,,,,,,,,,,,,,,,,,,,,,,,,,,,,,,,,592.298,597.4802,,,,,,,,,,,,,,,,,,,,,,,,,,,
,,,,,6679af725f681821b6bc1328,2026-02-02_14h37.39.335,causal,2025.1.1,Win32,59.52380952,,,,,,,,,,,,,,,,,,,,,,,,,,,,,,,,,,,,,,,,,,,,,,,,,,,,,,,,,,,,,,,,,,,,,,,,,,,,,,,,,,,,,,,,,,,,,,,,597.4804,605.6789,,,,,,,,,,,,,,,,,,,,,,,,,
,,,,,6679af725f681821b6bc1328,2026-02-02_14h37.39.335,causal,2025.1.1,Win32,59.52380952,,,,,,,,,,,,,,,,,,,,,,,,,,,,,,,,605.7151,606.2994,,,,606.3008,607.8126,,,,stimuli/collisions/calibration/stim6.mp4,,,,,,,,,,,,,,,,,,,,,,,,,,,,,,,,,,,,,,,,,,,,,,,,,,,,,,,,606.3003,606.3008,607.814,610.4789,610.4803,611.9848,1,[611.9919000000953],[611.9919000000953],0,[],[],FALSE,FALSE,TRUE,611.9851,614.6227,"[""space""]",[1.6052000000477165],[null],0,0,0,0,1
,,,,,6679af725f681821b6bc1328,2026-02-02_14h37.39.335,causal,2025.1.1,Win32,59.52380952,,,,,,,,,,,,,,,,,,,,,,,,,,,,,,,,614.6234,615.3628,,,,615.3633,616.8689,,,,stimuli/collisions/calibration/stim2.mp4,,,,,,,,,,,,,,,,,,,,,,,,,,,,,,,,,,,,,,,,,,,,,,,,,,,,,,,,615.3631,615.3633,616.9015,620.5639,620.569,621.5469,0,[],[],1,[621.5528000000714],[621.5528000000714],TRUE,TRUE,TRUE,621.5471,623.1067,"[""space""]",[0.5346000000238291],[null],1,0,1,0,1
,,,,,6679af725f681821b6bc1328,2026-02-02_14h37.39.335,causal,2025.1.1,Win32,59.52380952,,,,,,,,,,,,,,,,,,,,,,,,,,,,,,,,623.1072,623.7201,,,,623.722,625.2305,,,,stimuli/collisions/calibration/stim13.mp4,,,,,,,,,,,,,,,,,,,,,,,,,,,,,,,,,,,,,,,,,,,,,,,,,,,,,,,,623.7219,623.722,625.2312,628.1646,628.1708,629.0311,1,[629.0385],[629.0385],0,[],[],FALSE,FALSE,TRUE,629.0311,630.5145,"[""space""]",[0.45439999997608993],[null],2,0,2,0,1
,,,,,6679af725f681821b6bc1328,2026-02-02_14h37.39.335,causal,2025.1.1,Win32,59.52380952,,,,,,,,,,,,,,,,,,,,,,,,,,,,,,,,630.5151,631.4144,,,,631.4168,632.9316,,,,stimuli/collisions/calibration/stim9.mp4,,,,,,,,,,,,,,,,,,,,,,,,,,,,,,,,,,,,,,,,,,,,,,,,,,,,,,,,631.4166,631.4167,632.9676,636.0207,636.0257,636.5544,1,[636.5617000000476],[636.5617000000476],0,[],[],FALSE,FALSE,TRUE,636.5548,637.9249,"[""space""]",[0.3539000000953365],[null],3,0,3,0,1
,,,,,6679af725f681821b6bc1328,2026-02-02_14h37.39.335,causal,2025.1.1,Win32,59.52380952,,,,,,,,,,,,,,,,,,,,,,,,,,,,,,,,637.9256,638.5317,,,,638.534,640.0376,,,,stimuli/collisions/calibration/stim10.mp4,,,,,,,,,,,,,,,,,,,,,,,,,,,,,,,,,,,,,,,,,,,,,,,,,,,,,,,,638.5338,638.5339,640.0383,642.7992,642.8046,643.355,0,[],[],1,[643.3608999999761],[643.3608999999761],TRUE,TRUE,TRUE,643.3551,644.8038,"[""space""]",[0.43200000000001637],[null],4,0,4,0,1
,,,,,6679af725f681821b6bc1328,2026-02-02_14h37.39.335,causal,2025.1.1,Win32,59.52380952,,,,,,,,,,,,,,,,,,,,,,,,,,,,,,,,644.8044,646.9192,,,,646.9214,648.433,,,,stimuli/collisions/calibration/stim16.mp4,,,,,,,,,,,,,,,,,,,,,,,,,,,,,,,,,,,,,,,,,,,,,,,,,,,,,,,,646.9211,646.9213,648.4655,652.0561,652.0613,652.6062,1,[652.6136000000238],[652.6136000000238],0,[],[],FALSE,FALSE,TRUE,652.6063,654.2503,"[""space""]",[0.6202999999522945],[null],5,0,5,0,1
,,,,,6679af725f681821b6bc1328,2026-02-02_14h37.39.335,causal,2025.1.1,Win32,59.52380952,,,,,,,,,,,,,,,,,,,,,,,,,,,,,,,,654.2508,655.0675,,,,655.07,656.5837,,,,stimuli/collisions/calibration/stim8.mp4,,,,,,,,,,,,,,,,,,,,,,,,,,,,,,,,,,,,,,,,,,,,,,,,,,,,,,,,655.0697,655.0699,656.5843,660.1174,660.1224,660.6569,0,[],[],1,[660.6627000000476],[660.6627000000476],TRUE,FALSE,FALSE,660.6572,662.1375,"[""space""]",[0.46389999997609266],[null],6,0,6,0,1
,,,,,6679af725f681821b6bc1328,2026-02-02_14h37.39.335,causal,2025.1.1,Win32,59.52380952,,,,,,,,,,,,,,,,,,,,,,,,,,,,,,,,662.1382,662.7013,,,,662.7041,664.218,,,,stimuli/collisions/calibration/stim17.mp4,,,,,,,,,,,,,,,,,,,,,,,,,,,,,,,,,,,,,,,,,,,,,,,,,,,,,,,,662.7038,662.704,664.2189,667.4182,667.4229,668.3416,0,[],[],1,[668.3475],[668.3475],TRUE,TRUE,TRUE,668.3417,669.7854,"[""space""]",[0.4246999999285208],[null],7,0,7,0,1
,,,,,6679af725f681821b6bc1328,2026-02-02_14h37.39.335,causal,2025.1.1,Win32,59.52380952,,,,,,,,,,,,,,,,,,,,,,,,,,,,,,,,669.7861,670.5352,,,,670.5374,672.052,,,,stimuli/collisions/calibration/stim14.mp4,,,,,,,,,,,,,,,,,,,,,,,,,,,,,,,,,,,,,,,,,,,,,,,,,,,,,,,,670.5372,670.5374,672.0526,675.5027,675.5086,676.3083,1,[676.3156000000238],[676.3157000000476],0,[],[],FALSE,FALSE,TRUE,676.3084,677.7027,"[""space""]",[0.37119999992853536],[null],8,0,8,0,1
,,,,,6679af725f681821b6bc1328,2026-02-02_14h37.39.335,causal,2025.1.1,Win32,59.52380952,,,,,,,,,,,,,,,,,,,,,,,,,,,,,,,,677.7033,678.486,,,,678.4879,680.0028,,,,stimuli/collisions/calibration/stim12.mp4,,,,,,,,,,,,,,,,,,,,,,,,,,,,,,,,,,,,,,,,,,,,,,,,,,,,,,,,678.4877,678.4879,680.0034,682.8363,682.8424,683.4593,0,[],[],1,[683.4652000000476],[683.4652000000476],TRUE,FALSE,FALSE,683.4594,685.5702,"[""space""]",[1.088099999904557],[null],9,0,9,0,1
,,,,,6679af725f681821b6bc1328,2026-02-02_14h37.39.335,causal,2025.1.1,Win32,59.52380952,,,,,,,,,,,,,,,,,,,,,,,,,,,,,,,,685.5709,686.2202,,,,686.2224,687.7371,,,,stimuli/collisions/calibration/stim19.mp4,,,,,,,,,,,,,,,,,,,,,,,,,,,,,,,,,,,,,,,,,,,,,,,,,,,,,,,,686.2222,686.2224,687.7377,690.7876,690.7938,691.2207,0,[],[],1,[691.2266000000238],[691.2266000000238],TRUE,FALSE,FALSE,691.2208,692.4543,"[""space""]",[0.2042999999522408],[null],10,0,10,0,1
,,,,,6679af725f681821b6bc1328,2026-02-02_14h37.39.335,causal,2025.1.1,Win32,59.52380952,,,,,,,,,,,,,,,,,,,,,,,,,,,,,,,,692.4551,692.9875,,,,692.9895,694.5046,,,,stimuli/collisions/calibration/stim7.mp4,,,,,,,,,,,,,,,,,,,,,,,,,,,,,,,,,,,,,,,,,,,,,,,,,,,,,,,,692.9894,692.9895,694.5053,697.1711,697.1761,697.7046,0,[],[],1,[697.7105],[697.7105],TRUE,TRUE,TRUE,697.7049,699.2049,"[""space""]",[0.474099999904638],[null],11,0,11,0,1
,,,,,6679af725f681821b6bc1328,2026-02-02_14h37.39.335,causal,2025.1.1,Win32,59.52380952,,,,,,,,,,,,,,,,,,,,,,,,,,,,,,,,699.2058,699.955,,,,699.9572,701.4718,,,,stimuli/collisions/calibration/stim18.mp4,,,,,,,,,,,,,,,,,,,,,,,,,,,,,,,,,,,,,,,,,,,,,,,,,,,,,,,,699.957,699.957,701.4726,704.8775,704.8827,705.3947,1,[705.4019999999999],[705.4019999999999],0,[],[],FALSE,FALSE,TRUE,705.3949,706.6895,"[""space""]",[0.27159999990465167],[null],12,0,12,0,1
,,,,,6679af725f681821b6bc1328,2026-02-02_14h37.39.335,causal,2025.1.1,Win32,59.52380952,,,,,,,,,,,,,,,,,,,,,,,,,,,,,,,,706.6905,707.7391,,,,707.7407,709.2454,,,,stimuli/collisions/calibration/stim5.mp4,,,,,,,,,,,,,,,,,,,,,,,,,,,,,,,,,,,,,,,,,,,,,,,,,,,,,,,,707.7405,707.7406,709.2783,713.4399,713.4458,713.9084,0,[],[],1,[713.914],[713.914],TRUE,FALSE,FALSE,713.9087,715.3565,"[""space""]",[0.42449999999996635],[null],13,0,13,0,1
,,,,,6679af725f681821b6bc1328,2026-02-02_14h37.39.335,causal,2025.1.1,Win32,59.52380952,,,,,,,,,,,,,,,,,,,,,,,,,,,,,,,,715.3576,715.9565,,,,715.9586,717.4735,,,,stimuli/collisions/calibration/stim4.mp4,,,,,,,,,,,,,,,,,,,,,,,,,,,,,,,,,,,,,,,,,,,,,,,,,,,,,,,,715.9585,715.9585,717.4741,720.2404,720.2456,720.5939,0,[],[],1,[720.5998000000715],[720.5998000000715],TRUE,TRUE,TRUE,720.5941,722.2239,"[""space""]",[0.6082999999523508],[null],14,0,14,0,1
,,,,,6679af725f681821b6bc1328,2026-02-02_14h37.39.335,causal,2025.1.1,Win32,59.52380952,,,,,,,,,,,,,,,,,,,,,,,,,,,,,,,,722.2246,722.8407,,,,722.8421,724.3576,,,,stimuli/collisions/calibration/stim3.mp4,,,,,,,,,,,,,,,,,,,,,,,,,,,,,,,,,,,,,,,,,,,,,,,,,,,,,,,,722.842,722.8421,724.3588,728.4777,728.4828,728.8308,1,[728.8381000000238],[728.8381000000238],0,[],[],FALSE,FALSE,TRUE,728.8308,730.2746,"[""space""]",[0.4268999999761718],[null],15,0,15,0,1
,,,,,6679af725f681821b6bc1328,2026-02-02_14h37.39.335,causal,2025.1.1,Win32,59.52380952,,,,,,,,,,,,,,,,,,,,,,,,,,,,,,,,730.2753,730.8915,,,,730.8934,732.4085,,,,stimuli/collisions/calibration/stim1.mp4,,,,,,,,,,,,,,,,,,,,,,,,,,,,,,,,,,,,,,,,,,,,,,,,,,,,,,,,730.8932,730.8933,732.4093,735.7419,735.7486,736.2088,1,[736.2162000000476],[736.2162000000476],0,[],[],FALSE,FALSE,TRUE,736.209,737.5784,"[""space""]",[0.34689999997613086],[null],16,0,16,0,1
,,,,,6679af725f681821b6bc1328,2026-02-02_14h37.39.335,causal,2025.1.1,Win32,59.52380952,,,,,,,,,,,,,,,,,,,,,,,,,,,,,,,,737.5793,738.3587,,,,738.3607,739.8756,,,,stimuli/collisions/calibration/stim15.mp4,,,,,,,,,,,,,,,,,,,,,,,,,,,,,,,,,,,,,,,,,,,,,,,,,,,,,,,,738.3606,738.3606,739.8764,743.2098,743.216,743.5428,0,[],[],1,[743.5486000000238],[743.5486000000238],TRUE,TRUE,TRUE,743.5429,744.9097,"[""space""]",[0.30299999999999727],[null],17,0,17,0,1
,,,,,6679af725f681821b6bc1328,2026-02-02_14h37.39.335,causal,2025.1.1,Win32,59.52380952,,,,,,,,,,,,,,,,,,,,,,,,,,,,,,,,744.9103,745.5096,,,,745.5115,747.0431,,,,stimuli/collisions/calibration/stim11.mp4,,,,,,,,,,,,,,,,,,,,,,,,,,,,,,,,,,,,,,,,,,,,,,,,,,,,,,,,745.5113,745.5114,747.0437,749.9436,749.9486,750.3766,0,[],[],1,[750.3824999999999],[750.3824999999999],TRUE,TRUE,TRUE,750.3767,751.777,"[""space""]",[0.34029999995232174],[null],18,0,18,0,1
,,,,,6679af725f681821b6bc1328,2026-02-02_14h37.39.335,causal,2025.1.1,Win32,59.52380952,,,,,,,,,,,,,,,,,,,,,,,,,,,,,,,,751.7775,752.3437,,,,752.3456,753.8771,,,,stimuli/collisions/calibration/stim20.mp4,,,,,,,,,,,,,,,,,,,,,,,,,,,,,,,,,,,,,,,,,,,,,,,,,,,,,,,,752.3454,752.3455,753.8776,756.6439,756.6492,756.9441,0,[],[],1,[756.9499999999999],[756.9499999999999],TRUE,TRUE,TRUE,756.9443,758.011,"[""space""]",[0.011899999976208164],[null],19,0,19,0,1
