intro.started,intro.stopped,button_6.numClicks,button_6.timesOn,button_6.timesOff,participant,date,expName,psychopyVersion,OS,frameRate,timing_info.started,timing_info.stopped,button_7.numClicks,button_7.timesOn,button_7.timesOff,hand_positions.started,hand_positions.stopped,space_bar.keys,space_bar.rt,space_bar.duration,train_keys.started,train_keys.stopped,key_resp.keys,key_resp.rt,key_resp.duration,score.started,score.stopped,training_rounds,training.thisRepN,training.thisTrialN,training.thisN,training.thisIndex,training.ran,test_instruct.started,test_instruct.stopped,instruct_cont.started,instruct_cont.stopped,point_instruct.started,point_instruct.stopped,accident_instruct.started,accident_instruct.stopped,advance.started,advance.stopped,flip_video.started,flip_video.stopped,trial_type,buffer.started,buffer.stopped,collision.started,collision.stopped,selection,stimuli_path,select_resp.keys,select_resp.rt,select_resp.duration,resp_trial,responsibility.started,responsibility.stopped,conf_2.response,button.numClicks,button.timesOn,button.timesOff,conf_one,conf_two,conf_three,conf_3.response,conf_1.response,forfeit.started,forfeit.stopped,forfeit_button.numClicks,forfeit_button.timesOn,forfeit_button.timesOff,keep_button.numClicks,keep_button.timesOn,keep_button.timesOff,accuracy.started,accuracy.stopped,rt_diff,acc_points,keep_round,practice_round,begin_review.started,begin_review.stopped,space_bar_6.keys,space_bar_6.rt,space_bar_6.duration,review_keys.started,review_keys.stopped,key_resp_2.keys,key_resp_2.rt,key_resp_2.duration,review_trials,baseline_rts,review.thisRepN,review.thisTrialN,review.thisN,review.thisIndex,review.ran,trials.thisRepN,trials.thisTrialN,trials.thisN,trials.thisIndex,trials.ran,transition.started,transition.stopped,calibrate_instruct.started,calibrate_instruct.stopped,flip_calibration.started,flip_calibration.stopped,calibrate.started,calibrate.stopped,prediction.started,prediction.stopped,miss.numClicks,miss.timesOn,miss.timesOff,hit.numClicks,hit.timesOn,hit.timesOff,calibration_pred,calibration_actual,calibration_score,cal_feedback.started,cal_feedback.stopped,space_bar_12.keys,space_bar_12.rt,space_bar_12.duration,calibration.thisRepN,calibration.thisTrialN,calibration.thisN,calibration.thisIndex,calibration.ran
0.0004,18.0121,1,[13.016199999988082],[13.016199999988082],6692dd37cbe2467520e2ee6f,2026-02-02_16h55.38.818,causal,2025.1.1,MacIntel,62.89308176,,,,,,,,,,,,,,,,,,,,,,,,,,,,,,,,,,,,,,,,,,,,,,,,,,,,,,,,,,,,,,,,,,,,,,,,,,,,,,,,,,,,,,,,,,,,,,,,,,,,,,,,,,,,,,,,,,,,,,,,,,
,,,,,6692dd37cbe2467520e2ee6f,2026-02-02_16h55.38.818,causal,2025.1.1,MacIntel,62.89308176,18.0124,27.2577,1,[4.252900000005965],[4.252900000005965],,,,,,,,,,,,,,,,,,,,,,,,,,,,,,,,,,,,,,,,,,,,,,,,,,,,,,,,,,,,,,,,,,,,,,,,,,,,,,,,,,,,,,,,,,,,,,,,,,,,,,,,,,,,,,,,,,,,,
,,,,,6692dd37cbe2467520e2ee6f,2026-02-02_16h55.38.818,causal,2025.1.1,MacIntel,62.89308176,,,,,,27.258,47.9713,"[""space"",""space""]","[2.1486000000089405,17.64770000000297]","[null,null]",,,,,,,,,,,,,,,,,,,,,,,,,,,,,,,,,,,,,,,,,,,,,,,,,,,,,,,,,,,,,,,,,,,,,,,,,,,,,,,,,,,,,,,,,,,,,,,,,,,,,,,,,,,,,,,,
,,,,,6692dd37cbe2467520e2ee6f,2026-02-02_16h55.38.818,causal,2025.1.1,MacIntel,62.89308176,,,,,,,,,,,104.2217,105.153,space,0.557,,105.1532,108.3359,1,0,0,0,0,1,,,,,,,,,,,,,,,,,,,,,,,,,,,,,,,,,,,,,,,,,,,,,,,,,,,,,,,,,,,,,,,,,,,,,,,,,,,,,,,,,,,,,,,,,,,,,,,,,,,
,,,,,6692dd37cbe2467520e2ee6f,2026-02-02_16h55.38.818,causal,2025.1.1,MacIntel,62.89308176,,,,,,,,,,,,,,,,,,,,,,,,108.3364,120.6198,,,,,,,,,,,,,,,,,,,,,,,,,,,,,,,,,,,,,,,,,,,,,,,,,,,,,,,,,,,,,,,,,,,,,,,,,,,,,,,,,,,,,,,,,,,,,,,,,
,,,,,6692dd37cbe2467520e2ee6f,2026-02-02_16h55.38.818,causal,2025.1.1,MacIntel,62.89308176,,,,,,,,,,,,,,,,,,,,,,,,,,120.62,128.9527,,,,,,,,,,,,,,,,,,,,,,,,,,,,,,,,,,,,,,,,,,,,,,,,,,,,,,,,,,,,,,,,,,,,,,,,,,,,,,,,,,,,,,,,,,,,,,,
,,,,,6692dd37cbe2467520e2ee6f,2026-02-02_16h55.38.818,causal,2025.1.1,MacIntel,62.89308176,,,,,,,,,,,,,,,,,,,,,,,,,,,,128.9528,146.637,,,,,,,,,,,,,,,,,,,,,,,,,,,,,,,,,,,,,,,,,,,,,,,,,,,,,,,,,,,,,,,,,,,,,,,,,,,,,,,,,,,,,,,,,,,,,
,,,,,6692dd37cbe2467520e2ee6f,2026-02-02_16h55.38.818,causal,2025.1.1,MacIntel,62.89308176,,,,,,,,,,,,,,,,,,,,,,,,,,,,,,146.6372,151.6214,,,,,,,,,,,,,,,,,,,,,,,,,,,,,,,,,,,,,,,,,,,,,,,,,,,,,,,,,,,,,,,,,,,,,,,,,,,,,,,,,,,,,,,,,,,
,,,,,6692dd37cbe2467520e2ee6f,2026-02-02_16h55.38.818,causal,2025.1.1,MacIntel,62.89308176,,,,,,,,,,,,,,,,,,,,,,,,,,,,,,,,151.6241,153.203,153.2033,153.2033,train,208.9589,209.9679,154.7083,156.9051,green,stimuli/collisions/training/stim3.mp4,k,1.8082,,TRUE,156.9077,180.5369,100,1,[9.149599999994024],[9.149599999994024],red,green,blue,0,0,180.5373,182.7607,0,[],[],1,[182.78089999999105],[182.78089999999105],182.7613,188.0035,1.4618,30,TRUE,TRUE,188.0037,190.74,"[""space""]",[0.7050000000000125],[null],209.9679,210.8552,space,0.5058,,9,"[0.78,0.64,0.61,0.59,0.78,0.7,0.58,0.53,0.72,0.51]",9,0,9,0,1,,,,,,,,,,,,,,,,,,,,,,,,,,,,,,,,,,
,,,,,6692dd37cbe2467520e2ee6f,2026-02-02_16h55.38.818,causal,2025.1.1,MacIntel,62.89308176,,,,,,,,,,,,,,,,,,,,,,,,,,,,,,,,,,,,,,,,,,,,,,,,,,,,,,,,,,,,,,,,,,,,,,,,,,,,,,,,,,,,,,,,,0,0,0,0,1,,,,,,,,,,,,,,,,,,,,,,,,,,,,,
,,,,,6692dd37cbe2467520e2ee6f,2026-02-02_16h55.38.818,causal,2025.1.1,MacIntel,62.89308176,,,,,,,,,,,,,,,,,,,,,,,,,,,,,,,,210.8562,211.6171,211.6173,211.6173,train,242.243,243.2503,213.119,215.4723,miss,stimuli/collisions/training/stim1.mp4,space,1.9949,,TRUE,215.4748,215.4805,,0,[],[],red,green,blue,,,215.4818,217.742,0,[],[],1,[217.76239999999106],[217.76239999999106],217.7422,221.0672,2.1451,-10,TRUE,TRUE,221.0672,223.6844,"[""space""]",[0.6027999999970177],[null],243.2505,244.1234,space,0.5249,,9,"[1.31,0.68,0.69,0.54,0.62,0.71,0.52,0.67,0.56,0.52]",9,0,9,0,1,,,,,,,,,,,,,,,,,,,,,,,,,,,,,,,,,,
,,,,,6692dd37cbe2467520e2ee6f,2026-02-02_16h55.38.818,causal,2025.1.1,MacIntel,62.89308176,,,,,,,,,,,,,,,,,,,,,,,,,,,,,,,,,,,,,,,,,,,,,,,,,,,,,,,,,,,,,,,,,,,,,,,,,,,,,,,,,,,,,,,,,1,0,1,0,1,,,,,,,,,,,,,,,,,,,,,,,,,,,,,
,,,,,6692dd37cbe2467520e2ee6f,2026-02-02_16h55.38.818,causal,2025.1.1,MacIntel,62.89308176,,,,,,,,,,,,,,,,,,,,,,,,,,,,,,,,244.1239,244.9554,244.9555,244.9556,train,253.8738,253.8739,246.4727,249.0669,miss,stimuli/collisions/training/stim2.mp4,space,2.2699,,TRUE,249.0692,249.0744,,0,[],[],red,green,blue,,,249.0758,250.9511,0,[],[],1,[250.97170000000295],[250.97170000000295],250.9514,253.873,1.7301,20,TRUE,FALSE,253.873,253.8731,,,,253.8741,253.8746,,,,,,0,0,0,0,1,,,,,,,,,,,,,,,,,,,,,,,,,,,,,,,,,,
,,,,,6692dd37cbe2467520e2ee6f,2026-02-02_16h55.38.818,causal,2025.1.1,MacIntel,62.89308176,,,,,,,,,,,,,,,,,,,,,,,,,,,,,,,,,,,,,,,,,,,,,,,,,,,,,,,,,,,,,,,,,,,,,,,,,,,,,,,,,,,,,,,,,2,0,2,0,1,,,,,,,,,,,,,,,,,,,,,,,,,,,,,
,,,,,6692dd37cbe2467520e2ee6f,2026-02-02_16h55.38.818,causal,2025.1.1,MacIntel,62.89308176,,,,,,,,,,,,,,,,,,,,,,,,,,,,,,,,253.8747,257.0067,257.0068,257.0068,test,277.0256,277.0261,258.5244,261.2046,blue,stimuli/collisions/hit/stim14.mp4,j,2.433,,TRUE,261.2076,271.8542,0,1,[1.7683999999910611],[1.7683999999910611],red,green,blue,0,100,271.8565,272.8363,0,[],[],1,[272.85539999999105],[272.85539999999105],272.8367,277.0244,0.5938,45,TRUE,FALSE,277.0244,277.0246,,,,277.0261,277.0268,,,,,,0,0,0,0,1,,,,,,,,,,,,,,,,,,,,,,,,,,,,,,,,,,
,,,,,6692dd37cbe2467520e2ee6f,2026-02-02_16h55.38.818,causal,2025.1.1,MacIntel,62.89308176,,,,,,,,,,,,,,,,,,,,,,,,,,,,,,,,,,,,,,,,,,,,,,,,,,,,,,,,,,,,,,,,,,,,,,,,,,,,,,,,,,,,,,,,,3,0,3,0,1,,,,,,,,,,,,,,,,,,,,,,,,,,,,,
,,,,,6692dd37cbe2467520e2ee6f,2026-02-02_16h55.38.818,causal,2025.1.1,MacIntel,62.89308176,,,,,,,,,,,,,,,,,,,,,,,,,,,,,,,,277.027,278.3207,278.3207,278.3208,test,295.7552,295.7553,279.8224,282.0451,green,stimuli/collisions/hit/stim3.mp4,k,1.8795,,TRUE,282.0474,291.5907,100,1,[1.0229000000059614],[1.0229000000059614],red,green,blue,0,0,291.5926,292.7067,0,[],[],1,[292.7268999999911],[292.7268999999911],292.7068,295.7539,1.4605,75,TRUE,FALSE,295.754,295.7541,,,,295.7554,295.7557,,,,,,0,0,0,0,1,,,,,,,,,,,,,,,,,,,,,,,,,,,,,,,,,,
,,,,,6692dd37cbe2467520e2ee6f,2026-02-02_16h55.38.818,causal,2025.1.1,MacIntel,62.89308176,,,,,,,,,,,,,,,,,,,,,,,,,,,,,,,,,,,,,,,,,,,,,,,,,,,,,,,,,,,,,,,,,,,,,,,,,,,,,,,,,,,,,,,,,4,0,4,0,1,,,,,,,,,,,,,,,,,,,,,,,,,,,,,
,,,,,6692dd37cbe2467520e2ee6f,2026-02-02_16h55.38.818,causal,2025.1.1,MacIntel,62.89308176,,,,,,,,,,,,,,,,,,,,,,,,,,,,,,,,295.7559,296.834,296.8341,296.8342,test,313.9021,313.9023,298.3368,301.4539,green,stimuli/collisions/hit/stim13.mp4,k,2.7891,,TRUE,301.4568,309.3244,0,1,[1.4046000000089407],[1.4046000000089407],red,green,blue,100,0,309.3265,310.2667,0,[],[],1,[310.287],[310.287],310.2668,313.9005,0.9809,100,TRUE,FALSE,313.9006,313.9007,,,,313.9023,313.9028,,,,,,0,0,0,0,1,,,,,,,,,,,,,,,,,,,,,,,,,,,,,,,,,,
,,,,,6692dd37cbe2467520e2ee6f,2026-02-02_16h55.38.818,causal,2025.1.1,MacIntel,62.89308176,,,,,,,,,,,,,,,,,,,,,,,,,,,,,,,,,,,,,,,,,,,,,,,,,,,,,,,,,,,,,,,,,,,,,,,,,,,,,,,,,,,,,,,,,5,0,5,0,1,,,,,,,,,,,,,,,,,,,,,,,,,,,,,
,,,,,6692dd37cbe2467520e2ee6f,2026-02-02_16h55.38.818,causal,2025.1.1,MacIntel,62.89308176,,,,,,,,,,,,,,,,,,,,,,,,,,,,,,,,313.903,314.7995,314.7995,314.7995,catch,323.76,323.7601,316.3003,318.6673,miss,stimuli/collisions/miss/stim6.mp4,space,2.007,,TRUE,318.6698,318.6752,,0,[],[],red,green,blue,,,318.6764,320.6073,0,[],[],1,[320.627799999997],[320.627799999997],320.6078,323.7582,1.993,135,TRUE,FALSE,323.7582,323.7584,,,,323.7602,323.7607,,,,,,0,0,0,0,1,,,,,,,,,,,,,,,,,,,,,,,,,,,,,,,,,,
,,,,,6692dd37cbe2467520e2ee6f,2026-02-02_16h55.38.818,causal,2025.1.1,MacIntel,62.89308176,,,,,,,,,,,,,,,,,,,,,,,,,,,,,,,,,,,,,,,,,,,,,,,,,,,,,,,,,,,,,,,,,,,,,,,,,,,,,,,,,,,,,,,,,6,0,6,0,1,,,,,,,,,,,,,,,,,,,,,,,,,,,,,
,,,,,6692dd37cbe2467520e2ee6f,2026-02-02_16h55.38.818,causal,2025.1.1,MacIntel,62.89308176,,,,,,,,,,,,,,,,,,,,,,,,,,,,,,,,323.7612,324.7399,324.74,324.74,test,348.2223,348.2223,326.2544,328.8334,red,stimuli/collisions/hit/stim18.mp4,j,2.2355,,TRUE,328.8354,339.6009,0,1,[1.712500000000034],[1.712500000000034],red,green,blue,100,0,339.6031,344,1,[344.0203000000119],[344.0203000000119],0,[],[],344.0005,348.2201,0.9045,130,FALSE,FALSE,348.2203,348.2207,,,,348.2228,348.2233,,,,,,0,0,0,0,1,,,,,,,,,,,,,,,,,,,,,,,,,,,,,,,,,,
,,,,,6692dd37cbe2467520e2ee6f,2026-02-02_16h55.38.818,causal,2025.1.1,MacIntel,62.89308176,,,,,,,,,,,,,,,,,,,,,,,,,,,,,,,,,,,,,,,,,,,,,,,,,,,,,,,,,,,,,,,,,,,,,,,,,,,,,,,,,,,,,,,,,7,0,7,0,1,,,,,,,,,,,,,,,,,,,,,,,,,,,,,
,,,,,6692dd37cbe2467520e2ee6f,2026-02-02_16h55.38.818,causal,2025.1.1,MacIntel,62.89308176,,,,,,,,,,,,,,,,,,,,,,,,,,,,,,,,348.2235,349.5008,349.5008,349.5008,test,388.2017,389.2155,351.0021,353.952,red,stimuli/collisions/hit/stim5.mp4,j,2.5953,,TRUE,353.9546,363.1841,0,1,[1.767400000005921],[1.767400000005921],red,green,blue,0,100,363.1864,363.9169,0,[],[],1,[363.93679999999705],[363.93679999999705],363.9179,366.7349,1.3447,160,TRUE,TRUE,366.735,369.4395,"[""space""]",[0.6916999999880318],[null],389.2156,390.052,j,0.5029,,9,"[0.94,0.69,0.43,0.65,0.62,0.52,1.09,0.7,0.83,0.5]",9,0,9,0,1,,,,,,,,,,,,,,,,,,,,,,,,,,,,,,,,,,
,,,,,6692dd37cbe2467520e2ee6f,2026-02-02_16h55.38.818,causal,2025.1.1,MacIntel,62.89308176,,,,,,,,,,,,,,,,,,,,,,,,,,,,,,,,,,,,,,,,,,,,,,,,,,,,,,,,,,,,,,,,,,,,,,,,,,,,,,,,,,,,,,,,,8,0,8,0,1,,,,,,,,,,,,,,,,,,,,,,,,,,,,,
,,,,,6692dd37cbe2467520e2ee6f,2026-02-02_16h55.38.818,causal,2025.1.1,MacIntel,62.89308176,,,,,,,,,,,,,,,,,,,,,,,,,,,,,,,,390.0524,391.0362,391.0362,391.0362,catch,400.055,400.0551,392.5509,395.496,miss,stimuli/collisions/miss/stim1.mp4,space,2.6009,,TRUE,395.499,395.5043,,0,[],[],red,green,blue,,,395.5053,396.9812,0,[],[],1,[397.00179999999705],[397.00179999999705],396.9814,400.0544,1.3991,190,TRUE,FALSE,400.0544,400.0544,,,,400.0551,400.0559,,,,,,0,0,0,0,1,,,,,,,,,,,,,,,,,,,,,,,,,,,,,,,,,,
,,,,,6692dd37cbe2467520e2ee6f,2026-02-02_16h55.38.818,causal,2025.1.1,MacIntel,62.89308176,,,,,,,,,,,,,,,,,,,,,,,,,,,,,,,,,,,,,,,,,,,,,,,,,,,,,,,,,,,,,,,,,,,,,,,,,,,,,,,,,,,,,,,,,9,0,9,0,1,,,,,,,,,,,,,,,,,,,,,,,,,,,,,
,,,,,6692dd37cbe2467520e2ee6f,2026-02-02_16h55.38.818,causal,2025.1.1,MacIntel,62.89308176,,,,,,,,,,,,,,,,,,,,,,,,,,,,,,,,400.056,400.8888,400.8888,400.8888,test,418.666,418.666,402.4141,404.9989,red,stimuli/collisions/hit/stim11.mp4,j,2.2518,,TRUE,405.0014,414.019,0,1,[0.9027999999970575],[0.9027999999970575],red,green,blue,0,100,414.0218,415.0517,0,[],[],1,[415.07139999999106],[415.07139999999106],415.0522,418.6649,1.3182,220,TRUE,FALSE,418.6649,418.6649,,,,418.6661,418.6665,,,,,,0,0,0,0,1,,,,,,,,,,,,,,,,,,,,,,,,,,,,,,,,,,
,,,,,6692dd37cbe2467520e2ee6f,2026-02-02_16h55.38.818,causal,2025.1.1,MacIntel,62.89308176,,,,,,,,,,,,,,,,,,,,,,,,,,,,,,,,,,,,,,,,,,,,,,,,,,,,,,,,,,,,,,,,,,,,,,,,,,,,,,,,,,,,,,,,,10,0,10,0,1,,,,,,,,,,,,,,,,,,,,,,,,,,,,,
,,,,,6692dd37cbe2467520e2ee6f,2026-02-02_16h55.38.818,causal,2025.1.1,MacIntel,62.89308176,,,,,,,,,,,,,,,,,,,,,,,,,,,,,,,,418.6667,419.5715,419.5716,419.5716,test,438.8991,438.8992,421.0906,424.4526,green,stimuli/collisions/hit/stim15.mp4,k,3.0323,,TRUE,424.4553,435.3852,100,1,[0.7512000000029389],[0.7512000000029389],red,green,blue,0,0,435.3874,436.1826,0,[],[],1,[436.2028999999911],[436.2028999999911],436.1827,438.8981,1.6077,250,TRUE,FALSE,438.8981,438.8982,,,,438.8992,438.8997,,,,,,0,0,0,0,1,,,,,,,,,,,,,,,,,,,,,,,,,,,,,,,,,,
,,,,,6692dd37cbe2467520e2ee6f,2026-02-02_16h55.38.818,causal,2025.1.1,MacIntel,62.89308176,,,,,,,,,,,,,,,,,,,,,,,,,,,,,,,,,,,,,,,,,,,,,,,,,,,,,,,,,,,,,,,,,,,,,,,,,,,,,,,,,,,,,,,,,11,0,11,0,1,,,,,,,,,,,,,,,,,,,,,,,,,,,,,
,,,,,6692dd37cbe2467520e2ee6f,2026-02-02_16h55.38.818,causal,2025.1.1,MacIntel,62.89308176,,,,,,,,,,,,,,,,,,,,,,,,,,,,,,,,438.9002,439.6489,439.6489,439.649,test,457.4561,457.4569,441.1666,444.4669,red,stimuli/collisions/hit/stim4.mp4,j,2.9534,,TRUE,444.4699,453.4224,0,1,[1.7967000000029998],[1.7967000000029998],red,green,blue,100,0,453.4239,454.6309,1,[454.6518000000119],[454.6518000000119],0,[],[],454.6312,457.4548,1.0566,245,FALSE,FALSE,457.4548,457.4549,,,,457.457,457.4577,,,,,,0,0,0,0,1,,,,,,,,,,,,,,,,,,,,,,,,,,,,,,,,,,
,,,,,6692dd37cbe2467520e2ee6f,2026-02-02_16h55.38.818,causal,2025.1.1,MacIntel,62.89308176,,,,,,,,,,,,,,,,,,,,,,,,,,,,,,,,,,,,,,,,,,,,,,,,,,,,,,,,,,,,,,,,,,,,,,,,,,,,,,,,,,,,,,,,,12,0,12,0,1,,,,,,,,,,,,,,,,,,,,,,,,,,,,,
,,,,,6692dd37cbe2467520e2ee6f,2026-02-02_16h55.38.818,causal,2025.1.1,MacIntel,62.89308176,,,,,,,,,,,,,,,,,,,,,,,,,,,,,,,,457.4582,459.1051,459.1051,459.1052,test,479.651,479.6511,460.6146,463.5661,green,stimuli/collisions/hit/stim17.mp4,k,2.5942,,TRUE,463.5703,473.8723,0,1,[1.2830999999940786],[1.2830999999940786],red,green,blue,0,100,473.8738,476.6974,0,[],[],1,[476.717799999997],[476.717799999997],476.6976,479.6503,1.7158,275,TRUE,FALSE,479.6503,479.6504,,,,479.6512,479.6519,,,,,,0,0,0,0,1,,,,,,,,,,,,,,,,,,,,,,,,,,,,,,,,,,
,,,,,6692dd37cbe2467520e2ee6f,2026-02-02_16h55.38.818,causal,2025.1.1,MacIntel,62.89308176,,,,,,,,,,,,,,,,,,,,,,,,,,,,,,,,,,,,,,,,,,,,,,,,,,,,,,,,,,,,,,,,,,,,,,,,,,,,,,,,,,,,,,,,,13,0,13,0,1,,,,,,,,,,,,,,,,,,,,,,,,,,,,,
,,,,,6692dd37cbe2467520e2ee6f,2026-02-02_16h55.38.818,causal,2025.1.1,MacIntel,62.89308176,,,,,,,,,,,,,,,,,,,,,,,,,,,,,,,,479.6521,481.8131,481.8132,481.8132,test,498.8837,498.8838,483.3363,485.8859,red,stimuli/collisions/hit/stim9.mp4,j,2.2029,,TRUE,485.8886,495.0342,0,1,[1.2486999999881618],[1.2486999999881618],red,green,blue,0,100,495.0351,496.179,0,[],[],1,[496.1992000000031],[496.1992000000031],496.1792,498.883,0.7671,300,TRUE,FALSE,498.8831,498.8831,,,,498.8838,498.8842,,,,,,0,0,0,0,1,,,,,,,,,,,,,,,,,,,,,,,,,,,,,,,,,,
,,,,,6692dd37cbe2467520e2ee6f,2026-02-02_16h55.38.818,causal,2025.1.1,MacIntel,62.89308176,,,,,,,,,,,,,,,,,,,,,,,,,,,,,,,,,,,,,,,,,,,,,,,,,,,,,,,,,,,,,,,,,,,,,,,,,,,,,,,,,,,,,,,,,14,0,14,0,1,,,,,,,,,,,,,,,,,,,,,,,,,,,,,
,,,,,6692dd37cbe2467520e2ee6f,2026-02-02_16h55.38.818,causal,2025.1.1,MacIntel,62.89308176,,,,,,,,,,,,,,,,,,,,,,,,,,,,,,,,498.8845,499.951,499.951,499.951,test,516.65,516.6502,501.4535,503.6183,red,stimuli/collisions/hit/stim1.mp4,j,1.8299,,TRUE,503.6207,513.1812,0,1,[1.849200000002952],[1.849200000002952],red,green,blue,0,100,513.1833,514.0803,0,[],[],1,[514.1003999999912],[514.1003999999912],514.0805,516.6487,1.5401,330,TRUE,FALSE,516.6487,516.6487,,,,516.6504,516.6509,,,,,,0,0,0,0,1,,,,,,,,,,,,,,,,,,,,,,,,,,,,,,,,,,
,,,,,6692dd37cbe2467520e2ee6f,2026-02-02_16h55.38.818,causal,2025.1.1,MacIntel,62.89308176,,,,,,,,,,,,,,,,,,,,,,,,,,,,,,,,,,,,,,,,,,,,,,,,,,,,,,,,,,,,,,,,,,,,,,,,,,,,,,,,,,,,,,,,,15,0,15,0,1,,,,,,,,,,,,,,,,,,,,,,,,,,,,,
,,,,,6692dd37cbe2467520e2ee6f,2026-02-02_16h55.38.818,causal,2025.1.1,MacIntel,62.89308176,,,,,,,,,,,,,,,,,,,,,,,,,,,,,,,,516.651,518.0638,518.064,518.064,test,553.9701,554.9856,519.5816,522.4843,green,stimuli/collisions/hit/stim7.mp4,k,2.569,,TRUE,522.4864,530.1128,100,1,[2.211600000008957],[2.211600000008957],red,green,blue,0,0,530.1144,531.7172,0,[],[],1,[531.7370999999941],[531.7370999999941],531.7172,534.3853,0.701,355,TRUE,TRUE,534.3854,537.1299,"[""space""]",[0.71550000000002],[null],554.9856,556.237,k,0.9031,,9,"[0.53,0.55,0.46,0.52,0.51,0.49,0.49,0.43,0.59,0.9]",9,0,9,0,1,,,,,,,,,,,,,,,,,,,,,,,,,,,,,,,,,,
,,,,,6692dd37cbe2467520e2ee6f,2026-02-02_16h55.38.818,causal,2025.1.1,MacIntel,62.89308176,,,,,,,,,,,,,,,,,,,,,,,,,,,,,,,,,,,,,,,,,,,,,,,,,,,,,,,,,,,,,,,,,,,,,,,,,,,,,,,,,,,,,,,,,16,0,16,0,1,,,,,,,,,,,,,,,,,,,,,,,,,,,,,
,,,,,6692dd37cbe2467520e2ee6f,2026-02-02_16h55.38.818,causal,2025.1.1,MacIntel,62.89308176,,,,,,,,,,,,,,,,,,,,,,,,,,,,,,,,556.2374,556.9122,556.9122,556.9123,test,576.7003,576.7003,558.4219,560.1997,red,stimuli/collisions/hit/stim6.mp4,j,1.4213,,TRUE,560.2012,573.2024,1,1,[1.0846000000090044],[1.0846000000090044],red,green,blue,0,99,573.2046,574.0132,0,[],[],1,[574.0335],[574.0335],574.0134,576.6995,1.8187,390,TRUE,FALSE,576.6995,576.6995,,,,576.7004,576.7013,,,,,,0,0,0,0,1,,,,,,,,,,,,,,,,,,,,,,,,,,,,,,,,,,
,,,,,6692dd37cbe2467520e2ee6f,2026-02-02_16h55.38.818,causal,2025.1.1,MacIntel,62.89308176,,,,,,,,,,,,,,,,,,,,,,,,,,,,,,,,,,,,,,,,,,,,,,,,,,,,,,,,,,,,,,,,,,,,,,,,,,,,,,,,,,,,,,,,,17,0,17,0,1,,,,,,,,,,,,,,,,,,,,,,,,,,,,,
,,,,,6692dd37cbe2467520e2ee6f,2026-02-02_16h55.38.818,causal,2025.1.1,MacIntel,62.89308176,,,,,,,,,,,,,,,,,,,,,,,,,,,,,,,,576.7015,577.8366,577.8367,577.8367,catch,616.9026,617.9027,579.346,581.5466,green,stimuli/collisions/miss/stim5.mp4,k,1.8324,,TRUE,581.5491,590.7133,100,1,[1.6312000000029911],[1.6312000000029911],red,green,blue,0,0,590.7145,592.6482,0,[],[],1,[592.6685999999941],[592.6685999999941],592.6484,596.0365,2.1676,350,TRUE,TRUE,596.0365,598.7207,"[""space""]",[0.6600999999940314],[null],617.9028,618.8697,k,0.6302,,9,"[0.51,0.65,0.61,0.73,0.65,0.78,0.48,0.65,0.86,0.63]",9,0,9,0,1,,,,,,,,,,,,,,,,,,,,,,,,,,,,,,,,,,
,,,,,6692dd37cbe2467520e2ee6f,2026-02-02_16h55.38.818,causal,2025.1.1,MacIntel,62.89308176,,,,,,,,,,,,,,,,,,,,,,,,,,,,,,,,,,,,,,,,,,,,,,,,,,,,,,,,,,,,,,,,,,,,,,,,,,,,,,,,,,,,,,,,,18,0,18,0,1,,,,,,,,,,,,,,,,,,,,,,,,,,,,,
,,,,,6692dd37cbe2467520e2ee6f,2026-02-02_16h55.38.818,causal,2025.1.1,MacIntel,62.89308176,,,,,,,,,,,,,,,,,,,,,,,,,,,,,,,,618.8702,619.6998,619.6999,619.6999,test,634.3802,634.3802,621.2013,623.2127,green,stimuli/collisions/hit/stim16.mp4,k,1.68,,TRUE,623.2144,630.9844,0,1,[1.6177000000029693],[1.6177000000029693],red,green,blue,100,0,630.9868,631.7489,1,[631.7684000000061],[631.7684000000061],0,[],[],631.7492,634.3794,1.13,345,FALSE,FALSE,634.3794,634.3796,,,,634.3802,634.3816,,,,,,0,0,0,0,1,,,,,,,,,,,,,,,,,,,,,,,,,,,,,,,,,,
,,,,,6692dd37cbe2467520e2ee6f,2026-02-02_16h55.38.818,causal,2025.1.1,MacIntel,62.89308176,,,,,,,,,,,,,,,,,,,,,,,,,,,,,,,,,,,,,,,,,,,,,,,,,,,,,,,,,,,,,,,,,,,,,,,,,,,,,,,,,,,,,,,,,19,0,19,0,1,,,,,,,,,,,,,,,,,,,,,,,,,,,,,
,,,,,6692dd37cbe2467520e2ee6f,2026-02-02_16h55.38.818,causal,2025.1.1,MacIntel,62.89308176,,,,,,,,,,,,,,,,,,,,,,,,,,,,,,,,634.3817,635.1972,635.1973,635.1973,catch,670.7846,671.7988,636.6979,638.8499,blue,stimuli/collisions/miss/stim4.mp4,f,1.8193,,TRUE,638.8522,647.2631,0,1,[2.61579999999708],[2.61579999999708],red,green,blue,1,0,647.2652,648.28,1,[648.3005],[648.3005],0,[],[],648.2807,651.0126,2.1807,340,FALSE,TRUE,651.0126,653.4652,"[""space""]",[0.4342999999970516],[null],671.7988,672.7679,space,0.5845,,9,"[0.67,0.59,0.57,0.39,0.51,0.65,0.5,0.52,0.69,0.58]",9,0,9,0,1,,,,,,,,,,,,,,,,,,,,,,,,,,,,,,,,,,
,,,,,6692dd37cbe2467520e2ee6f,2026-02-02_16h55.38.818,causal,2025.1.1,MacIntel,62.89308176,,,,,,,,,,,,,,,,,,,,,,,,,,,,,,,,,,,,,,,,,,,,,,,,,,,,,,,,,,,,,,,,,,,,,,,,,,,,,,,,,,,,,,,,,20,0,20,0,1,,,,,,,,,,,,,,,,,,,,,,,,,,,,,
,,,,,6692dd37cbe2467520e2ee6f,2026-02-02_16h55.38.818,causal,2025.1.1,MacIntel,62.89308176,,,,,,,,,,,,,,,,,,,,,,,,,,,,,,,,672.7682,673.5771,673.5772,673.5772,test,690.0808,690.0809,675.0822,678.1953,blue,stimuli/collisions/hit/stim8.mp4,f,2.7685,,TRUE,678.1977,685.6131,0,1,[3.2784000000060587],[3.278500000000008],red,green,blue,100,0,685.6153,686.7276,0,[],[],1,[686.7478999999911],[686.7478999999911],686.7282,690.0796,0.5715,365,TRUE,FALSE,690.0796,690.0797,,,,690.0809,690.0823,,,,,,0,0,0,0,1,,,,,,,,,,,,,,,,,,,,,,,,,,,,,,,,,,
,,,,,6692dd37cbe2467520e2ee6f,2026-02-02_16h55.38.818,causal,2025.1.1,MacIntel,62.89308176,,,,,,,,,,,,,,,,,,,,,,,,,,,,,,,,,,,,,,,,,,,,,,,,,,,,,,,,,,,,,,,,,,,,,,,,,,,,,,,,,,,,,,,,,21,0,21,0,1,,,,,,,,,,,,,,,,,,,,,,,,,,,,,
,,,,,6692dd37cbe2467520e2ee6f,2026-02-02_16h55.38.818,causal,2025.1.1,MacIntel,62.89308176,,,,,,,,,,,,,,,,,,,,,,,,,,,,,,,,690.0833,690.9331,690.9331,690.9332,catch,698.0148,698.0149,692.4446,694.5659,miss,stimuli/collisions/miss/stim2.mp4,space,1.7692,,TRUE,694.5675,694.5707,,0,[],[],red,green,blue,,,694.5717,695.516,0,[],[],1,[695.5365],[695.5365],695.5165,698.0142,2.2308,400,TRUE,FALSE,698.0142,698.0143,,,,698.015,698.0158,,,,,,0,0,0,0,1,,,,,,,,,,,,,,,,,,,,,,,,,,,,,,,,,,
,,,,,6692dd37cbe2467520e2ee6f,2026-02-02_16h55.38.818,causal,2025.1.1,MacIntel,62.89308176,,,,,,,,,,,,,,,,,,,,,,,,,,,,,,,,,,,,,,,,,,,,,,,,,,,,,,,,,,,,,,,,,,,,,,,,,,,,,,,,,,,,,,,,,22,0,22,0,1,,,,,,,,,,,,,,,,,,,,,,,,,,,,,
,,,,,6692dd37cbe2467520e2ee6f,2026-02-02_16h55.38.818,causal,2025.1.1,MacIntel,62.89308176,,,,,,,,,,,,,,,,,,,,,,,,,,,,,,,,698.016,698.9951,698.9952,698.9952,test,728.161,729.1632,700.5171,702.7487,miss,stimuli/collisions/hit/stim2.mp4,space,1.8815,,TRUE,702.7504,702.7549,,0,[],[],red,green,blue,,,702.7557,704.9603,0,[],[],1,[704.9807999999971],[704.9807999999971],704.9606,707.5773,2.0285,360,TRUE,TRUE,707.5773,710.1269,"[""space""]",[0.5185000000000173],[null],729.1632,729.9109,j,0.4272,,9,"[0.84,0.55,0.46,0.7,0.67,0.62,0.68,0.81,0.47,0.43]",9,0,9,0,1,,,,,,,,,,,,,,,,,,,,,,,,,,,,,,,,,,
,,,,,6692dd37cbe2467520e2ee6f,2026-02-02_16h55.38.818,causal,2025.1.1,MacIntel,62.89308176,,,,,,,,,,,,,,,,,,,,,,,,,,,,,,,,,,,,,,,,,,,,,,,,,,,,,,,,,,,,,,,,,,,,,,,,,,,,,,,,,,,,,,,,,23,0,23,0,1,,,,,,,,,,,,,,,,,,,,,,,,,,,,,
,,,,,6692dd37cbe2467520e2ee6f,2026-02-02_16h55.38.818,causal,2025.1.1,MacIntel,62.89308176,,,,,,,,,,,,,,,,,,,,,,,,,,,,,,,,729.9111,730.728,730.728,730.7281,catch,759.961,760.9625,732.2304,734.8479,miss,stimuli/collisions/miss/stim3.mp4,space,2.2832,,TRUE,734.8531,734.8569,,0,[],[],red,green,blue,,,734.8581,737.0871,0,[],[],1,[737.1075000000001],[737.1075000000001],737.0882,739.7607,1.7168,390,TRUE,TRUE,739.7607,742.1173,"[""space""]",[0.3332999999969388],[null],760.9627,761.9341,space,0.603,,9,"[0.99,0.56,0.62,0.52,0.59,0.56,0.55,0.58,0.65,0.6]",9,0,9,0,1,,,,,,,,,,,,,,,,,,,,,,,,,,,,,,,,,,
,,,,,6692dd37cbe2467520e2ee6f,2026-02-02_16h55.38.818,causal,2025.1.1,MacIntel,62.89308176,,,,,,,,,,,,,,,,,,,,,,,,,,,,,,,,,,,,,,,,,,,,,,,,,,,,,,,,,,,,,,,,,,,,,,,,,,,,,,,,,,,,,,,,,24,0,24,0,1,,,,,,,,,,,,,,,,,,,,,,,,,,,,,
,,,,,6692dd37cbe2467520e2ee6f,2026-02-02_16h55.38.818,causal,2025.1.1,MacIntel,62.89308176,,,,,,,,,,,,,,,,,,,,,,,,,,,,,,,,761.9344,762.7926,762.7927,762.7927,test,776.8487,776.8488,764.3006,767.2969,green,stimuli/collisions/hit/stim12.mp4,k,2.6635,,TRUE,767.2985,773.182,100,1,[0.9232999999969707],[0.9232999999969707],red,green,blue,0,0,773.1833,774.11,0,[],[],1,[774.1302999999971],[774.1302999999971],774.1102,776.8481,1.4465,420,TRUE,FALSE,776.8481,776.8482,,,,776.8489,776.8492,,,,,,0,0,0,0,1,,,,,,,,,,,,,,,,,,,,,,,,,,,,,,,,,,
,,,,,6692dd37cbe2467520e2ee6f,2026-02-02_16h55.38.818,causal,2025.1.1,MacIntel,62.89308176,,,,,,,,,,,,,,,,,,,,,,,,,,,,,,,,,,,,,,,,,,,,,,,,,,,,,,,,,,,,,,,,,,,,,,,,,,,,,,,,,,,,,,,,,25,0,25,0,1,,,,,,,,,,,,,,,,,,,,,,,,,,,,,
,,,,,6692dd37cbe2467520e2ee6f,2026-02-02_16h55.38.818,causal,2025.1.1,MacIntel,62.89308176,,,,,,,,,,,,,,,,,,,,,,,,,,,,,,,,776.8494,777.761,777.7611,777.7611,test,790.0437,791.0489,779.2772,782.8762,miss,stimuli/collisions/hit/stim10.mp4,space,3.2514,,TRUE,782.8799,782.8845,,0,[],[],red,green,blue,,,782.8857,785.0803,1,[785.101300000012],[785.101300000012],0,[],[],785.0814,787.659,0.9886,415,FALSE,TRUE,787.659,790.0425,"[""space""]",[0.35879999999701795],[null],791.0489,791.0498,,,,,,0,0,0,0,1,,,,,,,,,,,,,,,,,,,,,,,,,,,,,,,,,,
,,,,,6692dd37cbe2467520e2ee6f,2026-02-02_16h55.38.818,causal,2025.1.1,MacIntel,62.89308176,,,,,,,,,,,,,,,,,,,,,,,,,,,,,,,,,,,,,,,,,,,,,,,,,,,,,,,,,,,,,,,,,,,,,,,,,,,,,,,,,,,,,,,,,26,0,26,0,1,,,,,,,,,,,,,,,,,,,,,,,,,,,,,
,,,,,6692dd37cbe2467520e2ee6f,2026-02-02_16h55.38.818,causal,2025.1.1,MacIntel,62.89308176,,,,,,,,,,,,,,,,,,,,,,,,,,,,,,,,,,,,,,,,,,,,,,,,,,,,,,,,,,,,,,,,,,,,,,,,,,,,,,,,,,,,,,,,,,,,,,791.0504,801.0102,,,,,,,,,,,,,,,,,,,,,,,,,,,
,,,,,6692dd37cbe2467520e2ee6f,2026-02-02_16h55.38.818,causal,2025.1.1,MacIntel,62.89308176,,,,,,,,,,,,,,,,,,,,,,,,,,,,,,,,,,,,,,,,,,,,,,,,,,,,,,,,,,,,,,,,,,,,,,,,,,,,,,,,,,,,,,,,,,,,,,,,801.0103,810.2306,,,,,,,,,,,,,,,,,,,,,,,,,
,,,,,6692dd37cbe2467520e2ee6f,2026-02-02_16h55.38.818,causal,2025.1.1,MacIntel,62.89308176,,,,,,,,,,,,,,,,,,,,,,,,,,,,,,,,810.232,811.5496,,,,811.5507,813.0592,,,,stimuli/collisions/calibration/stim11.mp4,,,,,,,,,,,,,,,,,,,,,,,,,,,,,,,,,,,,,,,,,,,,,,,,,,,,,,,,811.5502,811.5507,813.06,815.9597,815.96,817.976,0,[],[],1,[817.9780000000001],[817.9780000000001],TRUE,TRUE,TRUE,817.9766,819.9422,"[""space""]",[0.9284000000059223],[null],0,0,0,0,1
,,,,,6692dd37cbe2467520e2ee6f,2026-02-02_16h55.38.818,causal,2025.1.1,MacIntel,62.89308176,,,,,,,,,,,,,,,,,,,,,,,,,,,,,,,,819.9427,820.9818,,,,820.9822,822.4982,,,,stimuli/collisions/calibration/stim12.mp4,,,,,,,,,,,,,,,,,,,,,,,,,,,,,,,,,,,,,,,,,,,,,,,,,,,,,,,,820.9821,820.9821,822.4986,825.3251,825.3261,825.865,0,[],[],1,[825.8672999999972],[825.8672999999972],TRUE,FALSE,FALSE,825.8651,827.7254,"[""space""]",[0.8357999999969934],[null],1,0,1,0,1
,,,,,6692dd37cbe2467520e2ee6f,2026-02-02_16h55.38.818,causal,2025.1.1,MacIntel,62.89308176,,,,,,,,,,,,,,,,,,,,,,,,,,,,,,,,827.7256,828.7769,,,,828.7772,830.2812,,,,stimuli/collisions/calibration/stim7.mp4,,,,,,,,,,,,,,,,,,,,,,,,,,,,,,,,,,,,,,,,,,,,,,,,,,,,,,,,828.7771,828.7771,830.2816,832.9431,832.9453,833.4111,0,[],[],1,[833.4133999999912],[833.4133999999912],TRUE,TRUE,TRUE,833.4111,835.0418,"[""space""]",[0.6173999999911075],[null],2,0,2,0,1
,,,,,6692dd37cbe2467520e2ee6f,2026-02-02_16h55.38.818,causal,2025.1.1,MacIntel,62.89308176,,,,,,,,,,,,,,,,,,,,,,,,,,,,,,,,835.042,836.045,,,,836.0451,837.5584,,,,stimuli/collisions/calibration/stim5.mp4,,,,,,,,,,,,,,,,,,,,,,,,,,,,,,,,,,,,,,,,,,,,,,,,,,,,,,,,836.045,836.0451,837.5588,841.7582,841.7599,842.2275,0,[],[],1,[842.2297999999971],[842.2297999999971],TRUE,FALSE,FALSE,842.2276,844.5638,"[""space""]",[1.324700000002963],[null],3,0,3,0,1
,,,,,6692dd37cbe2467520e2ee6f,2026-02-02_16h55.38.818,causal,2025.1.1,MacIntel,62.89308176,,,,,,,,,,,,,,,,,,,,,,,,,,,,,,,,844.5641,845.2947,,,,845.2958,846.8118,,,,stimuli/collisions/calibration/stim1.mp4,,,,,,,,,,,,,,,,,,,,,,,,,,,,,,,,,,,,,,,,,,,,,,,,,,,,,,,,845.2955,845.2958,846.8122,850.1297,850.1308,850.4996,0,[],[],1,[850.5018999999911],[850.5018999999911],TRUE,FALSE,FALSE,850.4996,852.7621,"[""space""]",[1.2392999999970016],[null],4,0,4,0,1
,,,,,6692dd37cbe2467520e2ee6f,2026-02-02_16h55.38.818,causal,2025.1.1,MacIntel,62.89308176,,,,,,,,,,,,,,,,,,,,,,,,,,,,,,,,852.7624,853.4297,,,,853.4299,854.9415,,,,stimuli/collisions/calibration/stim19.mp4,,,,,,,,,,,,,,,,,,,,,,,,,,,,,,,,,,,,,,,,,,,,,,,,,,,,,,,,853.4299,853.4299,854.9419,857.9954,857.9973,858.3808,0,[],[],1,[858.3828999999912],[858.3828999999912],TRUE,FALSE,FALSE,858.381,860.1981,"[""space""]",[0.78630000001192],[null],5,0,5,0,1
,,,,,6692dd37cbe2467520e2ee6f,2026-02-02_16h55.38.818,causal,2025.1.1,MacIntel,62.89308176,,,,,,,,,,,,,,,,,,,,,,,,,,,,,,,,860.1984,861.2291,,,,861.2294,862.7322,,,,stimuli/collisions/calibration/stim13.mp4,,,,,,,,,,,,,,,,,,,,,,,,,,,,,,,,,,,,,,,,,,,,,,,,,,,,,,,,861.2293,861.2294,862.7325,865.6591,865.6602,866.9942,1,[866.9965999999941],[866.9965999999941],0,[],[],FALSE,FALSE,TRUE,866.9945,868.7655,"[""space""]",[0.757899999991082],[null],6,0,6,0,1
,,,,,6692dd37cbe2467520e2ee6f,2026-02-02_16h55.38.818,causal,2025.1.1,MacIntel,62.89308176,,,,,,,,,,,,,,,,,,,,,,,,,,,,,,,,868.7657,869.6935,,,,869.6936,871.1993,,,,stimuli/collisions/calibration/stim15.mp4,,,,,,,,,,,,,,,,,,,,,,,,,,,,,,,,,,,,,,,,,,,,,,,,,,,,,,,,869.6936,869.6936,871.1997,874.5296,874.5313,875.3758,0,[],[],1,[875.3780000000002],[875.3780000000002],TRUE,TRUE,TRUE,875.3758,877.2442,"[""space""]",[0.8369999999999891],[null],7,0,7,0,1
,,,,,6692dd37cbe2467520e2ee6f,2026-02-02_16h55.38.818,causal,2025.1.1,MacIntel,62.89308176,,,,,,,,,,,,,,,,,,,,,,,,,,,,,,,,877.2445,878.3254,,,,878.3256,879.8261,,,,stimuli/collisions/calibration/stim3.mp4,,,,,,,,,,,,,,,,,,,,,,,,,,,,,,,,,,,,,,,,,,,,,,,,,,,,,,,,878.3256,878.3256,879.8265,883.9565,883.9589,884.8092,0,[],[],1,[884.8108999999912],[884.8110000000001],TRUE,FALSE,FALSE,884.8093,886.2253,"[""space""]",[0.3885999999939713],[null],8,0,8,0,1
,,,,,6692dd37cbe2467520e2ee6f,2026-02-02_16h55.38.818,causal,2025.1.1,MacIntel,62.89308176,,,,,,,,,,,,,,,,,,,,,,,,,,,,,,,,886.2256,887.0623,,,,887.0626,888.565,,,,stimuli/collisions/calibration/stim10.mp4,,,,,,,,,,,,,,,,,,,,,,,,,,,,,,,,,,,,,,,,,,,,,,,,,,,,,,,,887.0626,887.0626,888.5654,891.3243,891.3258,891.7423,0,[],[],1,[891.7445999999942],[891.7445999999942],TRUE,TRUE,TRUE,891.7424,893.7086,"[""space""]",[0.9306999999880645],[null],9,0,9,0,1
,,,,,6692dd37cbe2467520e2ee6f,2026-02-02_16h55.38.818,causal,2025.1.1,MacIntel,62.89308176,,,,,,,,,,,,,,,,,,,,,,,,,,,,,,,,893.7088,894.3479,,,,894.3481,895.8597,,,,stimuli/collisions/calibration/stim4.mp4,,,,,,,,,,,,,,,,,,,,,,,,,,,,,,,,,,,,,,,,,,,,,,,,,,,,,,,,894.3481,894.3481,895.86,898.6366,898.6396,899.1666,0,[],[],1,[899.1688999999911],[899.1688999999911],TRUE,TRUE,TRUE,899.1667,900.6241,"[""space""]",[0.43570000000295295],[null],10,0,10,0,1
,,,,,6692dd37cbe2467520e2ee6f,2026-02-02_16h55.38.818,causal,2025.1.1,MacIntel,62.89308176,,,,,,,,,,,,,,,,,,,,,,,,,,,,,,,,900.6244,901.3327,,,,901.333,902.8478,,,,stimuli/collisions/calibration/stim16.mp4,,,,,,,,,,,,,,,,,,,,,,,,,,,,,,,,,,,,,,,,,,,,,,,,,,,,,,,,901.3329,901.333,902.8484,906.4769,906.4787,906.791,1,[906.7936999999881],[906.7936999999881],0,[],[],FALSE,FALSE,TRUE,906.791,908.524,"[""space""]",[0.7182000000029802],[null],11,0,11,0,1
,,,,,6692dd37cbe2467520e2ee6f,2026-02-02_16h55.38.818,causal,2025.1.1,MacIntel,62.89308176,,,,,,,,,,,,,,,,,,,,,,,,,,,,,,,,908.5242,909.0774,,,,909.0776,910.5793,,,,stimuli/collisions/calibration/stim14.mp4,,,,,,,,,,,,,,,,,,,,,,,,,,,,,,,,,,,,,,,,,,,,,,,,,,,,,,,,909.0776,909.0776,910.5796,914.0438,914.046,914.4112,1,[914.4136999999881],[914.4136999999881],0,[],[],FALSE,FALSE,TRUE,914.4113,916.1457,"[""space""]",[0.7002000000029511],[null],12,0,12,0,1
,,,,,6692dd37cbe2467520e2ee6f,2026-02-02_16h55.38.818,causal,2025.1.1,MacIntel,62.89308176,,,,,,,,,,,,,,,,,,,,,,,,,,,,,,,,916.1459,916.582,,,,916.5822,918.0919,,,,stimuli/collisions/calibration/stim9.mp4,,,,,,,,,,,,,,,,,,,,,,,,,,,,,,,,,,,,,,,,,,,,,,,,,,,,,,,,916.5821,916.5822,918.0924,921.1906,921.1918,922.1118,0,[],[],1,[922.1138999999912],[922.1138999999912],TRUE,FALSE,FALSE,922.1118,923.4787,"[""space""]",[0.33519999998804906],[null],13,0,13,0,1
,,,,,6692dd37cbe2467520e2ee6f,2026-02-02_16h55.38.818,causal,2025.1.1,MacIntel,62.89308176,,,,,,,,,,,,,,,,,,,,,,,,,,,,,,,,923.4793,923.9598,,,,923.96,925.4603,,,,stimuli/collisions/calibration/stim8.mp4,,,,,,,,,,,,,,,,,,,,,,,,,,,,,,,,,,,,,,,,,,,,,,,,,,,,,,,,923.9599,923.96,925.4608,928.9914,928.9935,929.364,0,[],[],1,[929.3663999999911],[929.3663999999911],TRUE,FALSE,FALSE,929.3641,930.7239,"[""space""]",[0.33349999999995816],[null],14,0,14,0,1
,,,,,6692dd37cbe2467520e2ee6f,2026-02-02_16h55.38.818,causal,2025.1.1,MacIntel,62.89308176,,,,,,,,,,,,,,,,,,,,,,,,,,,,,,,,930.7243,931.1745,,,,931.1747,932.6941,,,,stimuli/collisions/calibration/stim17.mp4,,,,,,,,,,,,,,,,,,,,,,,,,,,,,,,,,,,,,,,,,,,,,,,,,,,,,,,,931.1747,931.1747,932.6944,935.8901,935.8917,936.857,1,[936.8597999999971],[936.8597999999971],0,[],[],FALSE,TRUE,FALSE,936.857,938.7236,"[""space""]",[0.8447000000029448],[null],15,0,15,0,1
,,,,,6692dd37cbe2467520e2ee6f,2026-02-02_16h55.38.818,causal,2025.1.1,MacIntel,62.89308176,,,,,,,,,,,,,,,,,,,,,,,,,,,,,,,,938.7241,939.675,,,,939.6752,941.1782,,,,stimuli/collisions/calibration/stim2.mp4,,,,,,,,,,,,,,,,,,,,,,,,,,,,,,,,,,,,,,,,,,,,,,,,,,,,,,,,939.6751,939.6751,941.1787,944.8745,944.8758,945.2072,1,[945.2100999999941],[945.2100999999941],0,[],[],FALSE,TRUE,FALSE,945.2074,946.9193,"[""space""]",[0.6929999999999836],[null],16,0,16,0,1
,,,,,6692dd37cbe2467520e2ee6f,2026-02-02_16h55.38.818,causal,2025.1.1,MacIntel,62.89308176,,,,,,,,,,,,,,,,,,,,,,,,,,,,,,,,946.9196,947.5366,,,,947.5371,949.0473,,,,stimuli/collisions/calibration/stim18.mp4,,,,,,,,,,,,,,,,,,,,,,,,,,,,,,,,,,,,,,,,,,,,,,,,,,,,,,,,947.537,947.537,949.0477,952.4437,952.4458,952.9261,1,[952.9288999999911],[952.9288999999911],0,[],[],FALSE,FALSE,TRUE,952.9262,954.6638,"[""space""]",[0.7094999999999345],[null],17,0,17,0,1
,,,,,6692dd37cbe2467520e2ee6f,2026-02-02_16h55.38.818,causal,2025.1.1,MacIntel,62.89308176,,,,,,,,,,,,,,,,,,,,,,,,,,,,,,,,954.6642,955.1272,,,,955.1273,956.6464,,,,stimuli/collisions/calibration/stim20.mp4,,,,,,,,,,,,,,,,,,,,,,,,,,,,,,,,,,,,,,,,,,,,,,,,,,,,,,,,955.1273,955.1273,956.6467,959.4127,959.4142,959.8085,0,[],[],1,[959.8105999999941],[959.8105999999941],TRUE,TRUE,TRUE,959.8086,961.2632,"[""space""]",[0.42600000000004457],[null],18,0,18,0,1
,,,,,6692dd37cbe2467520e2ee6f,2026-02-02_16h55.38.818,causal,2025.1.1,MacIntel,62.89308176,,,,,,,,,,,,,,,,,,,,,,,,,,,,,,,,961.2634,961.8468,,,,961.8471,963.3482,,,,stimuli/collisions/calibration/stim6.mp4,,,,,,,,,,,,,,,,,,,,,,,,,,,,,,,,,,,,,,,,,,,,,,,,,,,,,,,,961.8471,961.8471,963.3486,966.0122,966.0137,966.395,1,[966.3976999999882],[966.3976999999882],0,[],[],FALSE,FALSE,TRUE,966.3951,968.1931,"[""space""]",[0.772700000002942],[null],19,0,19,0,1
