intro.started,intro.stopped,button_6.numClicks,button_6.timesOn,button_6.timesOff,participant,date,expName,psychopyVersion,OS,frameRate,timing_info.started,timing_info.stopped,button_7.numClicks,button_7.timesOn,button_7.timesOff,hand_positions.started,hand_positions.stopped,space_bar.keys,space_bar.rt,space_bar.duration,train_keys.started,train_keys.stopped,key_resp.keys,key_resp.rt,key_resp.duration,score.started,score.stopped,training.thisRepN,training.thisTrialN,training.thisN,training.thisIndex,training.ran,training_rounds,test_instruct.started,test_instruct.stopped,instruct_cont.started,instruct_cont.stopped,point_instruct.started,point_instruct.stopped,accident_instruct.started,accident_instruct.stopped,advance.started,advance.stopped,flip_video.started,flip_video.stopped,trial_type,buffer.started,buffer.stopped,collision.started,collision.stopped,selection,stimuli_path,select_resp.keys,select_resp.rt,select_resp.duration,resp_trial,responsibility.started,responsibility.stopped,conf_2.response,button.numClicks,button.timesOn,button.timesOff,conf_one,conf_two,conf_three,conf_3.response,conf_1.response,forfeit.started,forfeit.stopped,forfeit_button.numClicks,forfeit_button.timesOn,forfeit_button.timesOff,keep_button.numClicks,keep_button.timesOn,keep_button.timesOff,accuracy.started,accuracy.stopped,rt_diff,acc_points,keep_round,practice_round,begin_review.started,begin_review.stopped,space_bar_6.keys,space_bar_6.rt,space_bar_6.duration,review_keys.started,review_keys.stopped,key_resp_2.keys,key_resp_2.rt,key_resp_2.duration,review_trials,baseline_rts,review.thisRepN,review.thisTrialN,review.thisN,review.thisIndex,review.ran,trials.thisRepN,trials.thisTrialN,trials.thisN,trials.thisIndex,trials.ran,transition.started,transition.stopped,calibrate_instruct.started,calibrate_instruct.stopped,flip_calibration.started,flip_calibration.stopped,calibrate.started,calibrate.stopped,prediction.started,prediction.stopped,miss.numClicks,miss.timesOn,miss.timesOff,hit.numClicks,hit.timesOn,hit.timesOff,calibration_pred,calibration_actual,calibration_score,cal_feedback.started,cal_feedback.stopped,space_bar_12.keys,space_bar_12.rt,space_bar_12.duration,calibration.thisRepN,calibration.thisTrialN,calibration.thisN,calibration.thisIndex,calibration.ran
0.0005,11.0866,1,[6.094200000047685],[6.094299999952312],669b46825041be036247d1a2,2026-02-02_11h36.00.494,causal,2025.1.1,Win32,61.34969325,,,,,,,,,,,,,,,,,,,,,,,,,,,,,,,,,,,,,,,,,,,,,,,,,,,,,,,,,,,,,,,,,,,,,,,,,,,,,,,,,,,,,,,,,,,,,,,,,,,,,,,,,,,,,,,,,,,,,,,,,,
,,,,,669b46825041be036247d1a2,2026-02-02_11h36.00.494,causal,2025.1.1,Win32,61.34969325,11.0874,18.2113,1,[2.1315000000000026],[2.1315000000000026],,,,,,,,,,,,,,,,,,,,,,,,,,,,,,,,,,,,,,,,,,,,,,,,,,,,,,,,,,,,,,,,,,,,,,,,,,,,,,,,,,,,,,,,,,,,,,,,,,,,,,,,,,,,,,,,,,,,,
,,,,,669b46825041be036247d1a2,2026-02-02_11h36.00.494,causal,2025.1.1,Win32,61.34969325,,,,,,18.2117,29.9044,"[""space"",""space""]","[1.068200000047682,8.634299999952326]","[null,null]",,,,,,,,,,,,,,,,,,,,,,,,,,,,,,,,,,,,,,,,,,,,,,,,,,,,,,,,,,,,,,,,,,,,,,,,,,,,,,,,,,,,,,,,,,,,,,,,,,,,,,,,,,,,,,,,
,,,,,669b46825041be036247d1a2,2026-02-02_11h36.00.494,causal,2025.1.1,Win32,61.34969325,,,,,,,,,,,97.1074,98.2388,f,0.7831,,98.2394,109.8774,0,0,0,0,1,,,,,,,,,,,,,,,,,,,,,,,,,,,,,,,,,,,,,,,,,,,,,,,,,,,,,,,,,,,,,,,,,,,,,,,,,,,,,,,,,,,,,,,,,,,,,,,,,,,,
,,,,,669b46825041be036247d1a2,2026-02-02_11h36.00.494,causal,2025.1.1,Win32,61.34969325,,,,,,,,,,,166.6007,167.7987,j,0.8445,,167.7992,170.6281,1,0,1,0,1,2,,,,,,,,,,,,,,,,,,,,,,,,,,,,,,,,,,,,,,,,,,,,,,,,,,,,,,,,,,,,,,,,,,,,,,,,,,,,,,,,,,,,,,,,,,,,,,,,,,,
,,,,,669b46825041be036247d1a2,2026-02-02_11h36.00.494,causal,2025.1.1,Win32,61.34969325,,,,,,,,,,,,,,,,,,,,,,,,170.6304,189.5105,,,,,,,,,,,,,,,,,,,,,,,,,,,,,,,,,,,,,,,,,,,,,,,,,,,,,,,,,,,,,,,,,,,,,,,,,,,,,,,,,,,,,,,,,,,,,,,,,
,,,,,669b46825041be036247d1a2,2026-02-02_11h36.00.494,causal,2025.1.1,Win32,61.34969325,,,,,,,,,,,,,,,,,,,,,,,,,,189.5111,197.0702,,,,,,,,,,,,,,,,,,,,,,,,,,,,,,,,,,,,,,,,,,,,,,,,,,,,,,,,,,,,,,,,,,,,,,,,,,,,,,,,,,,,,,,,,,,,,,,
,,,,,669b46825041be036247d1a2,2026-02-02_11h36.00.494,causal,2025.1.1,Win32,61.34969325,,,,,,,,,,,,,,,,,,,,,,,,,,,,197.0705,205.7781,,,,,,,,,,,,,,,,,,,,,,,,,,,,,,,,,,,,,,,,,,,,,,,,,,,,,,,,,,,,,,,,,,,,,,,,,,,,,,,,,,,,,,,,,,,,,
,,,,,669b46825041be036247d1a2,2026-02-02_11h36.00.494,causal,2025.1.1,Win32,61.34969325,,,,,,,,,,,,,,,,,,,,,,,,,,,,,,205.7784,210.7115,,,,,,,,,,,,,,,,,,,,,,,,,,,,,,,,,,,,,,,,,,,,,,,,,,,,,,,,,,,,,,,,,,,,,,,,,,,,,,,,,,,,,,,,,,,
,,,,,669b46825041be036247d1a2,2026-02-02_11h36.00.494,causal,2025.1.1,Win32,61.34969325,,,,,,,,,,,,,,,,,,,,,,,,,,,,,,,,210.7125,212.4884,212.4893,212.4896,train,259.4828,260.4943,214.0057,216.3168,red,stimuli/collisions/training/stim3.mp4,j,1.9244,,TRUE,216.3321,231.6584,68,1,[1.769700000047692],[1.769700000047692],red,green,blue,15,12,231.6586,234.5341,1,[234.54660000014303],[234.54670000004768],0,[],[],234.5353,238.0204,1.3456,-5,FALSE,TRUE,238.0209,240.7332,"[""space""]",[0.682099999904608],[null],260.4946,261.4798,f,0.6151,,9,"[1.77,1.01,0.64,0.37,0.54,0.46,0.55,0.4,0.58,0.62]",9,0,9,0,1,,,,,,,,,,,,,,,,,,,,,,,,,,,,,,,,,,
,,,,,669b46825041be036247d1a2,2026-02-02_11h36.00.494,causal,2025.1.1,Win32,61.34969325,,,,,,,,,,,,,,,,,,,,,,,,,,,,,,,,,,,,,,,,,,,,,,,,,,,,,,,,,,,,,,,,,,,,,,,,,,,,,,,,,,,,,,,,,0,0,0,0,1,,,,,,,,,,,,,,,,,,,,,,,,,,,,,
,,,,,669b46825041be036247d1a2,2026-02-02_11h36.00.494,causal,2025.1.1,Win32,61.34969325,,,,,,,,,,,,,,,,,,,,,,,,,,,,,,,,261.4807,262.3237,262.3241,262.3241,train,272.1498,272.1501,263.8261,267.4169,miss,stimuli/collisions/training/stim2.mp4,space,3.2398,,TRUE,267.4212,267.4316,,0,[],[],red,green,blue,,,267.435,270.0162,0,[],[],1,[270.0295],[270.02960000014303],270.0181,272.1468,0.7602,20,TRUE,FALSE,272.1469,272.1472,,,,272.1502,272.1511,,,,,,0,0,0,0,1,,,,,,,,,,,,,,,,,,,,,,,,,,,,,,,,,,
,,,,,669b46825041be036247d1a2,2026-02-02_11h36.00.494,causal,2025.1.1,Win32,61.34969325,,,,,,,,,,,,,,,,,,,,,,,,,,,,,,,,,,,,,,,,,,,,,,,,,,,,,,,,,,,,,,,,,,,,,,,,,,,,,,,,,,,,,,,,,1,0,1,0,1,,,,,,,,,,,,,,,,,,,,,,,,,,,,,
,,,,,669b46825041be036247d1a2,2026-02-02_11h36.00.494,causal,2025.1.1,Win32,61.34969325,,,,,,,,,,,,,,,,,,,,,,,,,,,,,,,,272.1515,272.9486,272.9488,272.9488,train,293.5459,293.5461,274.4616,277.4306,red,stimuli/collisions/training/stim1.mp4,j,2.6028,,TRUE,277.4347,287.549,0,1,[2.247900000095342],[2.247900000095342],red,green,blue,0,95,287.5529,289.1136,0,[],[],1,[289.1262999999523],[289.1262999999523],289.1142,293.543,1.5372,50,TRUE,FALSE,293.543,293.5432,,,,293.5462,293.5472,,,,,,0,0,0,0,1,,,,,,,,,,,,,,,,,,,,,,,,,,,,,,,,,,
,,,,,669b46825041be036247d1a2,2026-02-02_11h36.00.494,causal,2025.1.1,Win32,61.34969325,,,,,,,,,,,,,,,,,,,,,,,,,,,,,,,,,,,,,,,,,,,,,,,,,,,,,,,,,,,,,,,,,,,,,,,,,,,,,,,,,,,,,,,,,2,0,2,0,1,,,,,,,,,,,,,,,,,,,,,,,,,,,,,
,,,,,669b46825041be036247d1a2,2026-02-02_11h36.00.494,causal,2025.1.1,Win32,61.34969325,,,,,,,,,,,,,,,,,,,,,,,,,,,,,,,,293.5477,295.0244,295.0248,295.0248,test,319.1195,319.1198,296.527,299.6234,red,stimuli/collisions/hit/stim8.mp4,j,2.7205,,TRUE,299.6259,314.7944,0,1,[4.944700000047703],[4.944700000047703],red,green,blue,98,0,314.7964,316.1703,1,[316.1832000000477],[316.1832000000477],0,[],[],316.1715,319.1174,0.6195,45,FALSE,FALSE,319.1176,319.1179,,,,319.1199,319.1203,,,,,,0,0,0,0,1,,,,,,,,,,,,,,,,,,,,,,,,,,,,,,,,,,
,,,,,669b46825041be036247d1a2,2026-02-02_11h36.00.494,causal,2025.1.1,Win32,61.34969325,,,,,,,,,,,,,,,,,,,,,,,,,,,,,,,,,,,,,,,,,,,,,,,,,,,,,,,,,,,,,,,,,,,,,,,,,,,,,,,,,,,,,,,,,3,0,3,0,1,,,,,,,,,,,,,,,,,,,,,,,,,,,,,
,,,,,669b46825041be036247d1a2,2026-02-02_11h36.00.494,causal,2025.1.1,Win32,61.34969325,,,,,,,,,,,,,,,,,,,,,,,,,,,,,,,,319.1205,320.2836,320.2839,320.2839,test,336.6016,336.6017,321.7996,324.229,red,stimuli/collisions/hit/stim11.mp4,j,2.0897,,TRUE,324.233,332.9379,0,1,[1.1326999998092333],[1.1326999998092333],red,green,blue,0,96,332.9416,334.1853,0,[],[],1,[334.19810000014303],[334.19810000014303],334.1858,336.5993,1.4803,75,TRUE,FALSE,336.5995,336.5996,,,,336.6018,336.6025,,,,,,0,0,0,0,1,,,,,,,,,,,,,,,,,,,,,,,,,,,,,,,,,,
,,,,,669b46825041be036247d1a2,2026-02-02_11h36.00.494,causal,2025.1.1,Win32,61.34969325,,,,,,,,,,,,,,,,,,,,,,,,,,,,,,,,,,,,,,,,,,,,,,,,,,,,,,,,,,,,,,,,,,,,,,,,,,,,,,,,,,,,,,,,,4,0,4,0,1,,,,,,,,,,,,,,,,,,,,,,,,,,,,,
,,,,,669b46825041be036247d1a2,2026-02-02_11h36.00.494,causal,2025.1.1,Win32,61.34969325,,,,,,,,,,,,,,,,,,,,,,,,,,,,,,,,336.6027,337.4323,337.4326,337.4326,test,352.8202,352.8211,338.9483,341.4667,red,stimuli/collisions/hit/stim9.mp4,j,2.1574,,TRUE,341.4708,348.7075,0,1,[0.8971999998092315],[0.8971999998092315],red,green,blue,0,100,348.7095,350.3196,0,[],[],1,[350.3322999999523],[350.3322999999523],350.3201,352.8176,0.8126,100,TRUE,FALSE,352.8177,352.8179,,,,352.8212,352.8225,,,,,,0,0,0,0,1,,,,,,,,,,,,,,,,,,,,,,,,,,,,,,,,,,
,,,,,669b46825041be036247d1a2,2026-02-02_11h36.00.494,causal,2025.1.1,Win32,61.34969325,,,,,,,,,,,,,,,,,,,,,,,,,,,,,,,,,,,,,,,,,,,,,,,,,,,,,,,,,,,,,,,,,,,,,,,,,,,,,,,,,,,,,,,,,5,0,5,0,1,,,,,,,,,,,,,,,,,,,,,,,,,,,,,
,,,,,669b46825041be036247d1a2,2026-02-02_11h36.00.494,causal,2025.1.1,Win32,61.34969325,,,,,,,,,,,,,,,,,,,,,,,,,,,,,,,,352.8229,353.6003,353.6004,353.6005,test,378.1343,378.1344,355.1151,359.3942,blue,stimuli/collisions/hit/stim10.mp4,f,3.9177,,TRUE,359.3982,374.0637,99,1,[1.1795000000000186],[1.1795999999046671],red,green,blue,0,1,374.0672,375.6789,1,[375.6918000001907],[375.6918000001907],0,[],[],375.6794,378.1322,0.3223,95,FALSE,FALSE,378.1323,378.1324,,,,378.1345,378.1356,,,,,,0,0,0,0,1,,,,,,,,,,,,,,,,,,,,,,,,,,,,,,,,,,
,,,,,669b46825041be036247d1a2,2026-02-02_11h36.00.494,causal,2025.1.1,Win32,61.34969325,,,,,,,,,,,,,,,,,,,,,,,,,,,,,,,,,,,,,,,,,,,,,,,,,,,,,,,,,,,,,,,,,,,,,,,,,,,,,,,,,,,,,,,,,6,0,6,0,1,,,,,,,,,,,,,,,,,,,,,,,,,,,,,
,,,,,669b46825041be036247d1a2,2026-02-02_11h36.00.494,causal,2025.1.1,Win32,61.34969325,,,,,,,,,,,,,,,,,,,,,,,,,,,,,,,,378.136,379.6139,379.6141,379.6141,catch,390.3489,390.3491,381.13,385.0899,miss,stimuli/collisions/miss/stim1.mp4,space,3.595,,TRUE,385.0953,385.1052,,0,[],[],red,green,blue,,,385.1074,387.3163,0,[],[],1,[387.3297999999523],[387.32990000009534],387.3168,390.3473,0.405,120,TRUE,FALSE,390.3473,390.3476,,,,390.3491,390.3507,,,,,,0,0,0,0,1,,,,,,,,,,,,,,,,,,,,,,,,,,,,,,,,,,
,,,,,669b46825041be036247d1a2,2026-02-02_11h36.00.494,causal,2025.1.1,Win32,61.34969325,,,,,,,,,,,,,,,,,,,,,,,,,,,,,,,,,,,,,,,,,,,,,,,,,,,,,,,,,,,,,,,,,,,,,,,,,,,,,,,,,,,,,,,,,7,0,7,0,1,,,,,,,,,,,,,,,,,,,,,,,,,,,,,
,,,,,669b46825041be036247d1a2,2026-02-02_11h36.00.494,causal,2025.1.1,Win32,61.34969325,,,,,,,,,,,,,,,,,,,,,,,,,,,,,,,,390.3511,391.2301,391.2303,391.2305,test,430.4801,431.4945,392.7461,396.6416,red,stimuli/collisions/hit/stim13.mp4,j,3.5559,,TRUE,396.6453,406.134,1,1,[1.5158999998569698],[1.5158999998569698],red,green,blue,99,0,406.1369,407.5534,1,[407.56640000009537],[407.56640000009537],0,[],[],407.5547,410.1684,0.2141,115,FALSE,TRUE,410.1686,412.6604,"[""space""]",[0.458500000000015],[null],431.4946,432.3891,space,0.5022,,9,"[0.48,0.47,0.52,0.92,0.53,0.67,0.63,0.62,0.58,0.5]",9,0,9,0,1,,,,,,,,,,,,,,,,,,,,,,,,,,,,,,,,,,
,,,,,669b46825041be036247d1a2,2026-02-02_11h36.00.494,causal,2025.1.1,Win32,61.34969325,,,,,,,,,,,,,,,,,,,,,,,,,,,,,,,,,,,,,,,,,,,,,,,,,,,,,,,,,,,,,,,,,,,,,,,,,,,,,,,,,,,,,,,,,8,0,8,0,1,,,,,,,,,,,,,,,,,,,,,,,,,,,,,
,,,,,669b46825041be036247d1a2,2026-02-02_11h36.00.494,causal,2025.1.1,Win32,61.34969325,,,,,,,,,,,,,,,,,,,,,,,,,,,,,,,,432.3893,433.1722,433.1727,433.1728,catch,442.9198,442.9201,434.6886,438.5169,miss,stimuli/collisions/miss/stim2.mp4,space,3.4787,,TRUE,438.5208,438.528,,0,[],[],red,green,blue,,,438.5292,440.3041,0,[],[],1,[440.3175],[440.3175],440.3045,442.9184,0.5213,140,TRUE,FALSE,442.9184,442.9186,,,,442.9202,442.921,,,,,,0,0,0,0,1,,,,,,,,,,,,,,,,,,,,,,,,,,,,,,,,,,
,,,,,669b46825041be036247d1a2,2026-02-02_11h36.00.494,causal,2025.1.1,Win32,61.34969325,,,,,,,,,,,,,,,,,,,,,,,,,,,,,,,,,,,,,,,,,,,,,,,,,,,,,,,,,,,,,,,,,,,,,,,,,,,,,,,,,,,,,,,,,9,0,9,0,1,,,,,,,,,,,,,,,,,,,,,,,,,,,,,
,,,,,669b46825041be036247d1a2,2026-02-02_11h36.00.494,causal,2025.1.1,Win32,61.34969325,,,,,,,,,,,,,,,,,,,,,,,,,,,,,,,,442.9213,443.8129,443.813,443.8131,test,459.7484,459.7488,445.3166,448.78,green,stimuli/collisions/hit/stim12.mp4,k,3.1114,,TRUE,448.7842,455.9017,98,1,[1.132299999952295],[1.132299999952295],red,green,blue,0,1,455.904,457.2657,0,[],[],1,[457.27860000014306],[457.27860000014306],457.2666,459.7465,0.9986,165,TRUE,FALSE,459.7466,459.7466,,,,459.7491,459.7505,,,,,,0,0,0,0,1,,,,,,,,,,,,,,,,,,,,,,,,,,,,,,,,,,
,,,,,669b46825041be036247d1a2,2026-02-02_11h36.00.494,causal,2025.1.1,Win32,61.34969325,,,,,,,,,,,,,,,,,,,,,,,,,,,,,,,,,,,,,,,,,,,,,,,,,,,,,,,,,,,,,,,,,,,,,,,,,,,,,,,,,,,,,,,,,10,0,10,0,1,,,,,,,,,,,,,,,,,,,,,,,,,,,,,
,,,,,669b46825041be036247d1a2,2026-02-02_11h36.00.494,causal,2025.1.1,Win32,61.34969325,,,,,,,,,,,,,,,,,,,,,,,,,,,,,,,,459.7509,460.3948,460.3949,460.3949,test,480.75,480.7502,461.9116,465.0293,red,stimuli/collisions/hit/stim2.mp4,j,2.7541,,TRUE,465.033,476.5151,2,1,[1.4314000000953229],[1.4314000000953229],red,green,blue,99,1,476.5175,478.1176,1,[478.1306000001431],[478.1306000001431],0,[],[],478.1183,480.7486,1.1559,160,FALSE,FALSE,480.7487,480.7488,,,,480.7503,480.7514,,,,,,0,0,0,0,1,,,,,,,,,,,,,,,,,,,,,,,,,,,,,,,,,,
,,,,,669b46825041be036247d1a2,2026-02-02_11h36.00.494,causal,2025.1.1,Win32,61.34969325,,,,,,,,,,,,,,,,,,,,,,,,,,,,,,,,,,,,,,,,,,,,,,,,,,,,,,,,,,,,,,,,,,,,,,,,,,,,,,,,,,,,,,,,,11,0,11,0,1,,,,,,,,,,,,,,,,,,,,,,,,,,,,,
,,,,,669b46825041be036247d1a2,2026-02-02_11h36.00.494,causal,2025.1.1,Win32,61.34969325,,,,,,,,,,,,,,,,,,,,,,,,,,,,,,,,480.7518,481.4319,481.432,481.4321,test,499.3652,499.3653,482.9463,486.7864,red,stimuli/collisions/hit/stim5.mp4,j,3.4909,,TRUE,486.791,494.503,0,1,[1.6151000001431157],[1.6151000001431157],red,green,blue,0,100,494.5053,496.9987,0,[],[],1,[497.01190000009535],[497.01190000009535],496.9996,499.3636,0.4491,185,TRUE,FALSE,499.3637,499.3638,,,,499.3654,499.366,,,,,,0,0,0,0,1,,,,,,,,,,,,,,,,,,,,,,,,,,,,,,,,,,
,,,,,669b46825041be036247d1a2,2026-02-02_11h36.00.494,causal,2025.1.1,Win32,61.34969325,,,,,,,,,,,,,,,,,,,,,,,,,,,,,,,,,,,,,,,,,,,,,,,,,,,,,,,,,,,,,,,,,,,,,,,,,,,,,,,,,,,,,,,,,12,0,12,0,1,,,,,,,,,,,,,,,,,,,,,,,,,,,,,
,,,,,669b46825041be036247d1a2,2026-02-02_11h36.00.494,causal,2025.1.1,Win32,61.34969325,,,,,,,,,,,,,,,,,,,,,,,,,,,,,,,,499.3663,500.2902,500.2905,500.2906,test,518.9243,518.9245,501.8062,505.7099,green,stimuli/collisions/hit/stim15.mp4,k,3.5387,,TRUE,505.7127,514.5442,99,1,[0.8489000000953411],[0.8489000000953411],red,green,blue,1,0,514.5467,516.5302,0,[],[],1,[516.543],[516.543],516.5306,518.9225,1.1013,215,TRUE,FALSE,518.9226,518.9227,,,,518.9246,518.9254,,,,,,0,0,0,0,1,,,,,,,,,,,,,,,,,,,,,,,,,,,,,,,,,,
,,,,,669b46825041be036247d1a2,2026-02-02_11h36.00.494,causal,2025.1.1,Win32,61.34969325,,,,,,,,,,,,,,,,,,,,,,,,,,,,,,,,,,,,,,,,,,,,,,,,,,,,,,,,,,,,,,,,,,,,,,,,,,,,,,,,,,,,,,,,,13,0,13,0,1,,,,,,,,,,,,,,,,,,,,,,,,,,,,,
,,,,,669b46825041be036247d1a2,2026-02-02_11h36.00.494,causal,2025.1.1,Win32,61.34969325,,,,,,,,,,,,,,,,,,,,,,,,,,,,,,,,518.9258,519.6602,519.6603,519.6603,catch,528.5823,528.5825,521.1762,525.0493,miss,stimuli/collisions/miss/stim6.mp4,space,3.5205,,TRUE,525.0539,525.0606,,0,[],[],red,green,blue,,,525.0619,526.1809,0,[],[],1,[526.1944000000954],[526.1944000000954],526.1813,528.5796,0.4795,240,TRUE,FALSE,528.5796,528.5797,,,,528.5825,528.5838,,,,,,0,0,0,0,1,,,,,,,,,,,,,,,,,,,,,,,,,,,,,,,,,,
,,,,,669b46825041be036247d1a2,2026-02-02_11h36.00.494,causal,2025.1.1,Win32,61.34969325,,,,,,,,,,,,,,,,,,,,,,,,,,,,,,,,,,,,,,,,,,,,,,,,,,,,,,,,,,,,,,,,,,,,,,,,,,,,,,,,,,,,,,,,,14,0,14,0,1,,,,,,,,,,,,,,,,,,,,,,,,,,,,,
,,,,,669b46825041be036247d1a2,2026-02-02_11h36.00.494,causal,2025.1.1,Win32,61.34969325,,,,,,,,,,,,,,,,,,,,,,,,,,,,,,,,528.5845,529.2618,529.2619,529.2619,test,545.4145,545.4149,530.7773,535.0772,blue,stimuli/collisions/hit/stim16.mp4,f,3.9234,,TRUE,535.0802,541.783,0,1,[0.6830999999045844],[0.6830999999045844],red,green,blue,100,1,541.7861,542.9976,0,[],[],1,[543.0105],[543.0105],542.9981,545.412,-1.1134,260,TRUE,FALSE,545.4121,545.4122,,,,545.415,545.4159,,,,,,0,0,0,0,1,,,,,,,,,,,,,,,,,,,,,,,,,,,,,,,,,,
,,,,,669b46825041be036247d1a2,2026-02-02_11h36.00.494,causal,2025.1.1,Win32,61.34969325,,,,,,,,,,,,,,,,,,,,,,,,,,,,,,,,,,,,,,,,,,,,,,,,,,,,,,,,,,,,,,,,,,,,,,,,,,,,,,,,,,,,,,,,,15,0,15,0,1,,,,,,,,,,,,,,,,,,,,,,,,,,,,,
,,,,,669b46825041be036247d1a2,2026-02-02_11h36.00.494,causal,2025.1.1,Win32,61.34969325,,,,,,,,,,,,,,,,,,,,,,,,,,,,,,,,545.4163,546.3443,546.3444,546.3444,test,586.4237,587.437,547.8612,550.4429,green,stimuli/collisions/hit/stim7.mp4,k,2.2256,,TRUE,550.446,558.39,100,1,[0.9472999999524063],[0.9472999999524063],red,green,blue,1,0,558.3918,560.3902,0,[],[],1,[560.403100000143],[560.403100000143],560.3909,563.4355,1.0444,285,TRUE,TRUE,563.4355,566.4584,"[""space""]",[0.9962000000476792],[null],587.4372,588.4922,space,0.6603,,9,"[0.86,0.43,0.52,0.63,0.56,0.51,0.45,0.9,0.66]",9,0,9,0,1,,,,,,,,,,,,,,,,,,,,,,,,,,,,,,,,,,
,,,,,669b46825041be036247d1a2,2026-02-02_11h36.00.494,causal,2025.1.1,Win32,61.34969325,,,,,,,,,,,,,,,,,,,,,,,,,,,,,,,,,,,,,,,,,,,,,,,,,,,,,,,,,,,,,,,,,,,,,,,,,,,,,,,,,,,,,,,,,16,0,16,0,1,,,,,,,,,,,,,,,,,,,,,,,,,,,,,
,,,,,669b46825041be036247d1a2,2026-02-02_11h36.00.494,causal,2025.1.1,Win32,61.34969325,,,,,,,,,,,,,,,,,,,,,,,,,,,,,,,,588.4929,589.0755,589.0756,589.0756,catch,631.1961,632.2104,590.5901,593.2818,green,stimuli/collisions/miss/stim3.mp4,k,2.3399,,TRUE,593.2864,605.4769,1,1,[1.5657000000476273],[1.5657000000476273],red,green,blue,0,0,605.4792,606.8249,1,[606.8382000000477],[606.8382000000477],0,[],[],606.8252,609.8673,1.6601,280,FALSE,TRUE,609.8673,612.5199,"[""space""]",[0.6259000000953847],[null],632.2105,633.1283,j,0.5573,,9,"[0.62,0.78,0.44,0.59,0.4,0.67,0.85,1.42,0.52,0.56]",9,0,9,0,1,,,,,,,,,,,,,,,,,,,,,,,,,,,,,,,,,,
,,,,,669b46825041be036247d1a2,2026-02-02_11h36.00.494,causal,2025.1.1,Win32,61.34969325,,,,,,,,,,,,,,,,,,,,,,,,,,,,,,,,,,,,,,,,,,,,,,,,,,,,,,,,,,,,,,,,,,,,,,,,,,,,,,,,,,,,,,,,,17,0,17,0,1,,,,,,,,,,,,,,,,,,,,,,,,,,,,,
,,,,,669b46825041be036247d1a2,2026-02-02_11h36.00.494,causal,2025.1.1,Win32,61.34969325,,,,,,,,,,,,,,,,,,,,,,,,,,,,,,,,633.1289,634.7415,634.7417,634.7417,catch,644.2184,644.2189,636.2573,639.8196,miss,stimuli/collisions/miss/stim4.mp4,space,3.2159,,TRUE,639.8246,639.8331,,0,[],[],red,green,blue,,,639.8341,641.6346,0,[],[],1,[641.648100000143],[641.648100000143],641.635,644.2162,0.7841,305,TRUE,FALSE,644.2162,644.2163,,,,644.219,644.2199,,,,,,0,0,0,0,1,,,,,,,,,,,,,,,,,,,,,,,,,,,,,,,,,,
,,,,,669b46825041be036247d1a2,2026-02-02_11h36.00.494,causal,2025.1.1,Win32,61.34969325,,,,,,,,,,,,,,,,,,,,,,,,,,,,,,,,,,,,,,,,,,,,,,,,,,,,,,,,,,,,,,,,,,,,,,,,,,,,,,,,,,,,,,,,,18,0,18,0,1,,,,,,,,,,,,,,,,,,,,,,,,,,,,,
,,,,,669b46825041be036247d1a2,2026-02-02_11h36.00.494,causal,2025.1.1,Win32,61.34969325,,,,,,,,,,,,,,,,,,,,,,,,,,,,,,,,644.2206,644.8653,644.8654,644.8654,test,661.468,661.4681,646.3801,648.795,red,stimuli/collisions/hit/stim6.mp4,j,2.0648,,TRUE,648.7993,656.5044,1,1,[0.8150000000000546],[0.8150000000000546],red,green,blue,1,99,656.5071,658.8341,0,[],[],1,[658.8474000000954],[658.8474000000954],658.8345,661.4657,1.1752,335,TRUE,FALSE,661.4657,661.4658,,,,661.4681,661.469,,,,,,0,0,0,0,1,,,,,,,,,,,,,,,,,,,,,,,,,,,,,,,,,,
,,,,,669b46825041be036247d1a2,2026-02-02_11h36.00.494,causal,2025.1.1,Win32,61.34969325,,,,,,,,,,,,,,,,,,,,,,,,,,,,,,,,,,,,,,,,,,,,,,,,,,,,,,,,,,,,,,,,,,,,,,,,,,,,,,,,,,,,,,,,,19,0,19,0,1,,,,,,,,,,,,,,,,,,,,,,,,,,,,,
,,,,,669b46825041be036247d1a2,2026-02-02_11h36.00.494,causal,2025.1.1,Win32,61.34969325,,,,,,,,,,,,,,,,,,,,,,,,,,,,,,,,661.4693,662.1482,662.1484,662.1485,test,679.7725,679.7726,663.6644,667.9965,green,stimuli/collisions/hit/stim17.mp4,k,3.9894,,TRUE,668.0001,675.8419,1,1,[0.913799999952289],[0.913799999952289],red,green,blue,1,99,675.8439,677.2906,1,[677.3024000000954],[677.3024000000954],0,[],[],677.2912,679.7712,0.3206,330,FALSE,FALSE,679.7713,679.7713,,,,679.7727,679.7738,,,,,,0,0,0,0,1,,,,,,,,,,,,,,,,,,,,,,,,,,,,,,,,,,
,,,,,669b46825041be036247d1a2,2026-02-02_11h36.00.494,causal,2025.1.1,Win32,61.34969325,,,,,,,,,,,,,,,,,,,,,,,,,,,,,,,,,,,,,,,,,,,,,,,,,,,,,,,,,,,,,,,,,,,,,,,,,,,,,,,,,,,,,,,,,20,0,20,0,1,,,,,,,,,,,,,,,,,,,,,,,,,,,,,
,,,,,669b46825041be036247d1a2,2026-02-02_11h36.00.494,causal,2025.1.1,Win32,61.34969325,,,,,,,,,,,,,,,,,,,,,,,,,,,,,,,,679.7741,680.2654,680.2655,680.2656,test,695.3182,695.3186,681.7683,684.848,red,stimuli/collisions/hit/stim14.mp4,j,2.7148,,TRUE,684.8516,691.2703,1,1,[0.8149000000953492],[0.8149000000953492],red,green,blue,0,100,691.2743,692.718,0,[],[],1,[692.731100000143],[692.731100000143],692.7182,695.3165,0.2252,350,TRUE,FALSE,695.3166,695.3168,,,,695.3187,695.3207,,,,,,0,0,0,0,1,,,,,,,,,,,,,,,,,,,,,,,,,,,,,,,,,,
,,,,,669b46825041be036247d1a2,2026-02-02_11h36.00.494,causal,2025.1.1,Win32,61.34969325,,,,,,,,,,,,,,,,,,,,,,,,,,,,,,,,,,,,,,,,,,,,,,,,,,,,,,,,,,,,,,,,,,,,,,,,,,,,,,,,,,,,,,,,,21,0,21,0,1,,,,,,,,,,,,,,,,,,,,,,,,,,,,,
,,,,,669b46825041be036247d1a2,2026-02-02_11h36.00.494,causal,2025.1.1,Win32,61.34969325,,,,,,,,,,,,,,,,,,,,,,,,,,,,,,,,695.321,696.7804,696.7805,696.7805,test,714.3383,714.3385,698.2969,701.8254,red,stimuli/collisions/hit/stim4.mp4,j,3.1795,,TRUE,701.8304,710.4576,1,1,[0.9482999999523827],[0.9482999999523827],red,green,blue,100,1,710.4596,711.69,1,[711.703],[711.703],0,[],[],711.6907,714.3366,0.8305,345,FALSE,FALSE,714.3366,714.3368,,,,714.3386,714.3398,,,,,,0,0,0,0,1,,,,,,,,,,,,,,,,,,,,,,,,,,,,,,,,,,
,,,,,669b46825041be036247d1a2,2026-02-02_11h36.00.494,causal,2025.1.1,Win32,61.34969325,,,,,,,,,,,,,,,,,,,,,,,,,,,,,,,,,,,,,,,,,,,,,,,,,,,,,,,,,,,,,,,,,,,,,,,,,,,,,,,,,,,,,,,,,22,0,22,0,1,,,,,,,,,,,,,,,,,,,,,,,,,,,,,
,,,,,669b46825041be036247d1a2,2026-02-02_11h36.00.494,causal,2025.1.1,Win32,61.34969325,,,,,,,,,,,,,,,,,,,,,,,,,,,,,,,,714.3403,715.8802,715.8803,715.8803,test,733.0975,733.0976,717.3818,720.3912,green,stimuli/collisions/hit/stim3.mp4,k,2.6539,,TRUE,720.3954,728.723,99,1,[0.7982000000475864],[0.7982000000475864],red,green,blue,0,0,728.7249,730.3052,0,[],[],1,[730.3182000000477],[730.3182000000477],730.3055,733.0952,0.6861,370,TRUE,FALSE,733.0952,733.0953,,,,733.0977,733.0983,,,,,,0,0,0,0,1,,,,,,,,,,,,,,,,,,,,,,,,,,,,,,,,,,
,,,,,669b46825041be036247d1a2,2026-02-02_11h36.00.494,causal,2025.1.1,Win32,61.34969325,,,,,,,,,,,,,,,,,,,,,,,,,,,,,,,,,,,,,,,,,,,,,,,,,,,,,,,,,,,,,,,,,,,,,,,,,,,,,,,,,,,,,,,,,23,0,23,0,1,,,,,,,,,,,,,,,,,,,,,,,,,,,,,
,,,,,669b46825041be036247d1a2,2026-02-02_11h36.00.494,causal,2025.1.1,Win32,61.34969325,,,,,,,,,,,,,,,,,,,,,,,,,,,,,,,,733.0987,733.6956,733.6958,733.6958,catch,766.597,767.6127,735.2116,738.9897,miss,stimuli/collisions/miss/stim5.mp4,space,3.4273,,TRUE,738.9942,739.0002,,0,[],[],red,green,blue,,,739.0014,740.0116,0,[],[],1,[740.0251000001431],[740.0251000001431],740.012,742.5587,0.5727,395,TRUE,TRUE,742.5587,744.9835,"[""space""]",[0.40709999990463075],[null],767.6133,768.4942,f,0.5308,,9,"[1.11,0.56,0.61,0.86,0.39,0.54,1.29,1.76,0.53]",9,0,9,0,1,,,,,,,,,,,,,,,,,,,,,,,,,,,,,,,,,,
,,,,,669b46825041be036247d1a2,2026-02-02_11h36.00.494,causal,2025.1.1,Win32,61.34969325,,,,,,,,,,,,,,,,,,,,,,,,,,,,,,,,,,,,,,,,,,,,,,,,,,,,,,,,,,,,,,,,,,,,,,,,,,,,,,,,,,,,,,,,,24,0,24,0,1,,,,,,,,,,,,,,,,,,,,,,,,,,,,,
,,,,,669b46825041be036247d1a2,2026-02-02_11h36.00.494,causal,2025.1.1,Win32,61.34969325,,,,,,,,,,,,,,,,,,,,,,,,,,,,,,,,768.4946,770.3423,770.3424,770.3426,test,786.229,786.2295,771.8582,774.3271,red,stimuli/collisions/hit/stim1.mp4,j,2.107,,TRUE,774.3308,781.3153,0,1,[0.8993000001908058],[0.8993000001908058],red,green,blue,1,99,781.3185,782.6974,0,[],[],1,[782.7104000000953],[782.7104000000953],782.6977,786.2272,1.263,425,TRUE,FALSE,786.2273,786.2273,,,,786.2297,786.2308,,,,,,0,0,0,0,1,,,,,,,,,,,,,,,,,,,,,,,,,,,,,,,,,,
,,,,,669b46825041be036247d1a2,2026-02-02_11h36.00.494,causal,2025.1.1,Win32,61.34969325,,,,,,,,,,,,,,,,,,,,,,,,,,,,,,,,,,,,,,,,,,,,,,,,,,,,,,,,,,,,,,,,,,,,,,,,,,,,,,,,,,,,,,,,,25,0,25,0,1,,,,,,,,,,,,,,,,,,,,,,,,,,,,,
,,,,,669b46825041be036247d1a2,2026-02-02_11h36.00.494,causal,2025.1.1,Win32,61.34969325,,,,,,,,,,,,,,,,,,,,,,,,,,,,,,,,786.2312,786.9437,786.9437,786.9437,test,803.6454,803.6462,788.4586,790.963,red,stimuli/collisions/hit/stim18.mp4,j,2.1387,,TRUE,790.9668,799.7472,1,1,[1.0324999999999136],[1.0324999999999136],red,green,blue,99,1,799.7506,801.1455,1,[801.1587000000477],[801.1587000000477],0,[],[],801.1458,803.6438,1.0013,420,FALSE,FALSE,803.6438,803.6439,,,,803.6464,803.6483,,,,,,0,0,0,0,1,,,,,,,,,,,,,,,,,,,,,,,,,,,,,,,,,,
,,,,,669b46825041be036247d1a2,2026-02-02_11h36.00.494,causal,2025.1.1,Win32,61.34969325,,,,,,,,,,,,,,,,,,,,,,,,,,,,,,,,,,,,,,,,,,,,,,,,,,,,,,,,,,,,,,,,,,,,,,,,,,,,,,,,,,,,,,,,,26,0,26,0,1,,,,,,,,,,,,,,,,,,,,,,,,,,,,,
,,,,,669b46825041be036247d1a2,2026-02-02_11h36.00.494,causal,2025.1.1,Win32,61.34969325,,,,,,,,,,,,,,,,,,,,,,,,,,,,,,,,,,,,,,,,,,,,,,,,,,,,,,,,,,,,,,,,,,,,,,,,,,,,,,,,,,,,,,,,,,,,,,803.6491,808.6888,,,,,,,,,,,,,,,,,,,,,,,,,,,
,,,,,669b46825041be036247d1a2,2026-02-02_11h36.00.494,causal,2025.1.1,Win32,61.34969325,,,,,,,,,,,,,,,,,,,,,,,,,,,,,,,,,,,,,,,,,,,,,,,,,,,,,,,,,,,,,,,,,,,,,,,,,,,,,,,,,,,,,,,,,,,,,,,,808.6889,814.4401,,,,,,,,,,,,,,,,,,,,,,,,,
,,,,,669b46825041be036247d1a2,2026-02-02_11h36.00.494,causal,2025.1.1,Win32,61.34969325,,,,,,,,,,,,,,,,,,,,,,,,,,,,,,,,814.4421,815.2052,,,,815.2064,816.7153,,,,stimuli/collisions/calibration/stim13.mp4,,,,,,,,,,,,,,,,,,,,,,,,,,,,,,,,,,,,,,,,,,,,,,,,,,,,,,,,815.206,815.2064,816.7165,819.6491,819.6516,821.3426,0,[],[],1,[821.3440999999046],[821.3440999999046],TRUE,FALSE,FALSE,821.3429,824.1239,"[""space""]",[1.7471999998092542],[null],0,0,0,0,1
,,,,,669b46825041be036247d1a2,2026-02-02_11h36.00.494,causal,2025.1.1,Win32,61.34969325,,,,,,,,,,,,,,,,,,,,,,,,,,,,,,,,824.1246,824.7894,,,,824.7897,826.3042,,,,stimuli/collisions/calibration/stim17.mp4,,,,,,,,,,,,,,,,,,,,,,,,,,,,,,,,,,,,,,,,,,,,,,,,,,,,,,,,824.7895,824.7896,826.3047,829.5023,829.5056,830.437,0,[],[],1,[830.4389000000954],[830.4389000000954],TRUE,TRUE,TRUE,830.4371,832.073,"[""space""]",[0.6017999999522772],[null],1,0,1,0,1
,,,,,669b46825041be036247d1a2,2026-02-02_11h36.00.494,causal,2025.1.1,Win32,61.34969325,,,,,,,,,,,,,,,,,,,,,,,,,,,,,,,,832.0735,832.8162,,,,832.8169,834.334,,,,stimuli/collisions/calibration/stim16.mp4,,,,,,,,,,,,,,,,,,,,,,,,,,,,,,,,,,,,,,,,,,,,,,,,,,,,,,,,832.8167,832.8168,834.3348,837.9598,837.9645,838.8978,0,[],[],1,[838.899],[838.899],TRUE,FALSE,FALSE,838.898,840.0095,"[""space""]",[0.08360000014306479],[null],2,0,2,0,1
,,,,,669b46825041be036247d1a2,2026-02-02_11h36.00.494,causal,2025.1.1,Win32,61.34969325,,,,,,,,,,,,,,,,,,,,,,,,,,,,,,,,840.0101,840.5816,,,,840.582,842.0903,,,,stimuli/collisions/calibration/stim19.mp4,,,,,,,,,,,,,,,,,,,,,,,,,,,,,,,,,,,,,,,,,,,,,,,,,,,,,,,,840.5819,840.582,842.0909,845.1577,845.1614,846.2901,1,[846.2921000001431],[846.2921000001431],0,[],[],FALSE,FALSE,TRUE,846.2902,847.6564,"[""space""]",[0.3347999999523381],[null],3,0,3,0,1
,,,,,669b46825041be036247d1a2,2026-02-02_11h36.00.494,causal,2025.1.1,Win32,61.34969325,,,,,,,,,,,,,,,,,,,,,,,,,,,,,,,,847.6569,848.3049,,,,848.3057,849.8196,,,,stimuli/collisions/calibration/stim8.mp4,,,,,,,,,,,,,,,,,,,,,,,,,,,,,,,,,,,,,,,,,,,,,,,,,,,,,,,,848.3055,848.3057,849.8208,853.3456,853.349,854.0332,1,[854.0352000000477],[854.0352000000477],0,[],[],FALSE,FALSE,TRUE,854.0333,855.5153,"[""space""]",[0.4504000000953283],[null],4,0,4,0,1
,,,,,669b46825041be036247d1a2,2026-02-02_11h36.00.494,causal,2025.1.1,Win32,61.34969325,,,,,,,,,,,,,,,,,,,,,,,,,,,,,,,,855.5157,856.2478,,,,856.2484,857.763,,,,stimuli/collisions/calibration/stim7.mp4,,,,,,,,,,,,,,,,,,,,,,,,,,,,,,,,,,,,,,,,,,,,,,,,,,,,,,,,856.2483,856.2483,857.7643,860.4236,860.428,861.2761,0,[],[],1,[861.2777999999523],[861.2777999999523],TRUE,TRUE,TRUE,861.2761,862.7059,"[""space""]",[0.3977999999523263],[null],5,0,5,0,1
,,,,,669b46825041be036247d1a2,2026-02-02_11h36.00.494,causal,2025.1.1,Win32,61.34969325,,,,,,,,,,,,,,,,,,,,,,,,,,,,,,,,862.7067,863.2692,,,,863.2697,864.7892,,,,stimuli/collisions/calibration/stim1.mp4,,,,,,,,,,,,,,,,,,,,,,,,,,,,,,,,,,,,,,,,,,,,,,,,,,,,,,,,863.2696,863.2697,864.7908,868.1149,868.1204,868.7459,1,[868.7479000000955],[868.7479000000955],0,[],[],FALSE,FALSE,TRUE,868.746,870.9948,"[""space""]",[1.2160000000000082],[null],6,0,6,0,1
,,,,,669b46825041be036247d1a2,2026-02-02_11h36.00.494,causal,2025.1.1,Win32,61.34969325,,,,,,,,,,,,,,,,,,,,,,,,,,,,,,,,870.9954,871.6604,,,,871.6611,873.1755,,,,stimuli/collisions/calibration/stim3.mp4,,,,,,,,,,,,,,,,,,,,,,,,,,,,,,,,,,,,,,,,,,,,,,,,,,,,,,,,871.661,871.6611,873.1763,877.3095,877.3128,878.009,1,[878.0110000000001],[878.0110000000001],0,[],[],FALSE,FALSE,TRUE,878.009,879.1415,"[""space""]",[0.10020000004760732],[null],7,0,7,0,1
,,,,,669b46825041be036247d1a2,2026-02-02_11h36.00.494,causal,2025.1.1,Win32,61.34969325,,,,,,,,,,,,,,,,,,,,,,,,,,,,,,,,879.1419,879.6748,,,,879.6753,881.19,,,,stimuli/collisions/calibration/stim9.mp4,,,,,,,,,,,,,,,,,,,,,,,,,,,,,,,,,,,,,,,,,,,,,,,,,,,,,,,,879.6752,879.6753,881.1908,884.2827,884.2866,885.0028,1,[885.0049000000954],[885.0049000000954],0,[],[],FALSE,FALSE,TRUE,885.0029,886.635,"[""space""]",[0.5994999999999209],[null],8,0,8,0,1
,,,,,669b46825041be036247d1a2,2026-02-02_11h36.00.494,causal,2025.1.1,Win32,61.34969325,,,,,,,,,,,,,,,,,,,,,,,,,,,,,,,,886.6354,887.6347,,,,887.6352,889.1459,,,,stimuli/collisions/calibration/stim2.mp4,,,,,,,,,,,,,,,,,,,,,,,,,,,,,,,,,,,,,,,,,,,,,,,,,,,,,,,,887.6351,887.6352,889.1472,892.8396,892.8444,894.3722,1,[894.3742999999523],[894.3742999999523],0,[],[],FALSE,TRUE,FALSE,894.3724,895.636,"[""space""]",[0.23990000009530377],[null],9,0,9,0,1
,,,,,669b46825041be036247d1a2,2026-02-02_11h36.00.494,causal,2025.1.1,Win32,61.34969325,,,,,,,,,,,,,,,,,,,,,,,,,,,,,,,,895.6365,896.2366,,,,896.2371,897.7512,,,,stimuli/collisions/calibration/stim6.mp4,,,,,,,,,,,,,,,,,,,,,,,,,,,,,,,,,,,,,,,,,,,,,,,,,,,,,,,,896.237,896.2371,897.7518,900.4139,900.417,901.1636,1,[901.1652999999524],[901.1652999999524],0,[],[],FALSE,FALSE,TRUE,901.1638,902.3964,"[""space""]",[0.2072000000476919],[null],10,0,10,0,1
,,,,,669b46825041be036247d1a2,2026-02-02_11h36.00.494,causal,2025.1.1,Win32,61.34969325,,,,,,,,,,,,,,,,,,,,,,,,,,,,,,,,902.3967,902.9295,,,,902.9299,904.4443,,,,stimuli/collisions/calibration/stim4.mp4,,,,,,,,,,,,,,,,,,,,,,,,,,,,,,,,,,,,,,,,,,,,,,,,,,,,,,,,902.9298,902.9298,904.4451,907.2139,907.2174,908.147,0,[],[],1,[908.1487999999523],[908.1487999999523],TRUE,TRUE,TRUE,908.1471,910.1075,"[""space""]",[0.9352000000476437],[null],11,0,11,0,1
,,,,,669b46825041be036247d1a2,2026-02-02_11h36.00.494,causal,2025.1.1,Win32,61.34969325,,,,,,,,,,,,,,,,,,,,,,,,,,,,,,,,910.108,910.6116,,,,910.6121,912.125,,,,stimuli/collisions/calibration/stim11.mp4,,,,,,,,,,,,,,,,,,,,,,,,,,,,,,,,,,,,,,,,,,,,,,,,,,,,,,,,910.612,910.612,912.126,915.0225,915.0265,915.771,0,[],[],1,[915.7727999999523],[915.7727999999523],TRUE,TRUE,TRUE,915.7711,917.9995,"[""space""]",[1.21579999995231],[null],12,0,12,0,1
,,,,,669b46825041be036247d1a2,2026-02-02_11h36.00.494,causal,2025.1.1,Win32,61.34969325,,,,,,,,,,,,,,,,,,,,,,,,,,,,,,,,918,918.6824,,,,918.6829,920.2,,,,stimuli/collisions/calibration/stim15.mp4,,,,,,,,,,,,,,,,,,,,,,,,,,,,,,,,,,,,,,,,,,,,,,,,,,,,,,,,918.6829,918.6829,920.2011,923.5295,923.5346,924.6912,1,[924.6931000001431],[924.6932000000477],0,[],[],FALSE,TRUE,FALSE,924.6912,926.4391,"[""space""]",[0.7168999998569916],[null],13,0,13,0,1
,,,,,669b46825041be036247d1a2,2026-02-02_11h36.00.494,causal,2025.1.1,Win32,61.34969325,,,,,,,,,,,,,,,,,,,,,,,,,,,,,,,,926.44,926.9723,,,,926.9727,928.4865,,,,stimuli/collisions/calibration/stim18.mp4,,,,,,,,,,,,,,,,,,,,,,,,,,,,,,,,,,,,,,,,,,,,,,,,,,,,,,,,926.9725,926.9727,928.4871,931.887,931.8918,932.9502,0,[],[],1,[932.9519000000954],[932.9519000000954],TRUE,FALSE,FALSE,932.9504,934.5982,"[""space""]",[0.6232999999523372],[null],14,0,14,0,1
,,,,,669b46825041be036247d1a2,2026-02-02_11h36.00.494,causal,2025.1.1,Win32,61.34969325,,,,,,,,,,,,,,,,,,,,,,,,,,,,,,,,934.599,935.0822,,,,935.0827,936.5974,,,,stimuli/collisions/calibration/stim12.mp4,,,,,,,,,,,,,,,,,,,,,,,,,,,,,,,,,,,,,,,,,,,,,,,,,,,,,,,,935.0825,935.0827,936.5993,939.4153,939.4178,940.0478,0,[],[],1,[940.0494000000954],[940.0494000000954],TRUE,FALSE,FALSE,940.0479,941.6645,"[""space""]",[0.5834999999999582],[null],15,0,15,0,1
,,,,,669b46825041be036247d1a2,2026-02-02_11h36.00.494,causal,2025.1.1,Win32,61.34969325,,,,,,,,,,,,,,,,,,,,,,,,,,,,,,,,941.665,942.163,,,,942.1637,943.6782,,,,stimuli/collisions/calibration/stim14.mp4,,,,,,,,,,,,,,,,,,,,,,,,,,,,,,,,,,,,,,,,,,,,,,,,,,,,,,,,942.1635,942.1637,943.679,947.1404,947.1443,947.8179,1,[947.8197999999524],[947.8197999999524],0,[],[],FALSE,FALSE,TRUE,947.8182,949.3006,"[""space""]",[0.45420000004764916],[null],16,0,16,0,1
,,,,,669b46825041be036247d1a2,2026-02-02_11h36.00.494,causal,2025.1.1,Win32,61.34969325,,,,,,,,,,,,,,,,,,,,,,,,,,,,,,,,949.3011,949.7496,,,,949.75,951.266,,,,stimuli/collisions/calibration/stim20.mp4,,,,,,,,,,,,,,,,,,,,,,,,,,,,,,,,,,,,,,,,,,,,,,,,,,,,,,,,949.75,949.75,951.2668,954.0343,954.0373,954.6161,0,[],[],1,[954.618],[954.618],TRUE,TRUE,TRUE,954.6162,955.9525,"[""space""]",[0.3032999999522872],[null],17,0,17,0,1
,,,,,669b46825041be036247d1a2,2026-02-02_11h36.00.494,causal,2025.1.1,Win32,61.34969325,,,,,,,,,,,,,,,,,,,,,,,,,,,,,,,,955.9531,956.7497,,,,956.7502,958.2624,,,,stimuli/collisions/calibration/stim5.mp4,,,,,,,,,,,,,,,,,,,,,,,,,,,,,,,,,,,,,,,,,,,,,,,,,,,,,,,,956.7501,956.7502,958.2636,962.4546,962.4582,963.6412,1,[963.6432999999523],[963.6432999999523],0,[],[],FALSE,FALSE,TRUE,963.6414,964.8693,"[""space""]",[0.20600000000001728],[null],18,0,18,0,1
,,,,,669b46825041be036247d1a2,2026-02-02_11h36.00.494,causal,2025.1.1,Win32,61.34969325,,,,,,,,,,,,,,,,,,,,,,,,,,,,,,,,964.8698,965.3736,,,,965.374,966.889,,,,stimuli/collisions/calibration/stim10.mp4,,,,,,,,,,,,,,,,,,,,,,,,,,,,,,,,,,,,,,,,,,,,,,,,,,,,,,,,965.3738,965.3739,966.8899,969.6486,969.6525,970.4525,0,[],[],1,[970.4544000000953],[970.4544000000953],TRUE,TRUE,TRUE,970.4526,971.5518,"[""space""]",[0.06739999985688883],[null],19,0,19,0,1
