intro.started,intro.stopped,button_6.numClicks,button_6.timesOn,button_6.timesOff,participant,date,expName,psychopyVersion,OS,frameRate,timing_info.started,timing_info.stopped,button_7.numClicks,button_7.timesOn,button_7.timesOff,hand_positions.started,hand_positions.stopped,space_bar.keys,space_bar.rt,space_bar.duration,train_keys.started,train_keys.stopped,key_resp.keys,key_resp.rt,key_resp.duration,score.started,score.stopped,training_rounds,training.thisRepN,training.thisTrialN,training.thisN,training.thisIndex,training.ran,test_instruct.started,test_instruct.stopped,instruct_cont.started,instruct_cont.stopped,point_instruct.started,point_instruct.stopped,accident_instruct.started,accident_instruct.stopped,advance.started,advance.stopped,flip_video.started,flip_video.stopped,trial_type,buffer.started,buffer.stopped,collision.started,collision.stopped,selection,stimuli_path,select_resp.keys,select_resp.rt,select_resp.duration,resp_trial,responsibility.started,responsibility.stopped,conf_2.response,button.numClicks,button.timesOn,button.timesOff,conf_one,conf_two,conf_three,conf_3.response,conf_1.response,forfeit.started,forfeit.stopped,forfeit_button.numClicks,forfeit_button.timesOn,forfeit_button.timesOff,keep_button.numClicks,keep_button.timesOn,keep_button.timesOff,accuracy.started,accuracy.stopped,rt_diff,acc_points,keep_round,practice_round,begin_review.started,begin_review.stopped,space_bar_6.keys,space_bar_6.rt,space_bar_6.duration,review_keys.started,review_keys.stopped,key_resp_2.keys,key_resp_2.rt,key_resp_2.duration,review_trials,baseline_rts,review.thisRepN,review.thisTrialN,review.thisN,review.thisIndex,review.ran,trials.thisRepN,trials.thisTrialN,trials.thisN,trials.thisIndex,trials.ran,transition.started,transition.stopped,calibrate_instruct.started,calibrate_instruct.stopped,flip_calibration.started,flip_calibration.stopped,calibrate.started,calibrate.stopped,prediction.started,prediction.stopped,miss.numClicks,miss.timesOn,miss.timesOff,hit.numClicks,hit.timesOn,hit.timesOff,calibration_pred,calibration_actual,calibration_score,cal_feedback.started,cal_feedback.stopped,space_bar_12.keys,space_bar_12.rt,space_bar_12.duration,calibration.thisRepN,calibration.thisTrialN,calibration.thisN,calibration.thisIndex,calibration.ran
0.0006,7.2154,1,[2.2154999999999987],[2.2155999999940406],678408b0ce4bc7f5bd48469d,2026-02-02_13h49.56.429,causal,2025.1.1,Win32,59.88023952,,,,,,,,,,,,,,,,,,,,,,,,,,,,,,,,,,,,,,,,,,,,,,,,,,,,,,,,,,,,,,,,,,,,,,,,,,,,,,,,,,,,,,,,,,,,,,,,,,,,,,,,,,,,,,,,,,,,,,,,,,
,,,,,678408b0ce4bc7f5bd48469d,2026-02-02_13h49.56.429,causal,2025.1.1,Win32,59.88023952,7.2169,13.7167,1,[1.5031999999880767],[1.5031999999880767],,,,,,,,,,,,,,,,,,,,,,,,,,,,,,,,,,,,,,,,,,,,,,,,,,,,,,,,,,,,,,,,,,,,,,,,,,,,,,,,,,,,,,,,,,,,,,,,,,,,,,,,,,,,,,,,,,,,,
,,,,,678408b0ce4bc7f5bd48469d,2026-02-02_13h49.56.429,causal,2025.1.1,Win32,59.88023952,,,,,,13.7183,23.3287,"[""space"",""space""]","[1.5159999999999982,6.545699999988081]","[null,null]",,,,,,,,,,,,,,,,,,,,,,,,,,,,,,,,,,,,,,,,,,,,,,,,,,,,,,,,,,,,,,,,,,,,,,,,,,,,,,,,,,,,,,,,,,,,,,,,,,,,,,,,,,,,,,,,
,,,,,678408b0ce4bc7f5bd48469d,2026-02-02_13h49.56.429,causal,2025.1.1,Win32,59.88023952,,,,,,,,,,,76.0659,77.0625,space,0.6155,,77.0657,81.0124,1,0,0,0,0,1,,,,,,,,,,,,,,,,,,,,,,,,,,,,,,,,,,,,,,,,,,,,,,,,,,,,,,,,,,,,,,,,,,,,,,,,,,,,,,,,,,,,,,,,,,,,,,,,,,,
,,,,,678408b0ce4bc7f5bd48469d,2026-02-02_13h49.56.429,causal,2025.1.1,Win32,59.88023952,,,,,,,,,,,,,,,,,,,,,,,,81.018,87.396,,,,,,,,,,,,,,,,,,,,,,,,,,,,,,,,,,,,,,,,,,,,,,,,,,,,,,,,,,,,,,,,,,,,,,,,,,,,,,,,,,,,,,,,,,,,,,,,,
,,,,,678408b0ce4bc7f5bd48469d,2026-02-02_13h49.56.429,causal,2025.1.1,Win32,59.88023952,,,,,,,,,,,,,,,,,,,,,,,,,,87.3968,95.2984,,,,,,,,,,,,,,,,,,,,,,,,,,,,,,,,,,,,,,,,,,,,,,,,,,,,,,,,,,,,,,,,,,,,,,,,,,,,,,,,,,,,,,,,,,,,,,,
,,,,,678408b0ce4bc7f5bd48469d,2026-02-02_13h49.56.429,causal,2025.1.1,Win32,59.88023952,,,,,,,,,,,,,,,,,,,,,,,,,,,,95.2995,107.0001,,,,,,,,,,,,,,,,,,,,,,,,,,,,,,,,,,,,,,,,,,,,,,,,,,,,,,,,,,,,,,,,,,,,,,,,,,,,,,,,,,,,,,,,,,,,,
,,,,,678408b0ce4bc7f5bd48469d,2026-02-02_13h49.56.429,causal,2025.1.1,Win32,59.88023952,,,,,,,,,,,,,,,,,,,,,,,,,,,,,,107.0014,112.8801,,,,,,,,,,,,,,,,,,,,,,,,,,,,,,,,,,,,,,,,,,,,,,,,,,,,,,,,,,,,,,,,,,,,,,,,,,,,,,,,,,,,,,,,,,,
,,,,,678408b0ce4bc7f5bd48469d,2026-02-02_13h49.56.429,causal,2025.1.1,Win32,59.88023952,,,,,,,,,,,,,,,,,,,,,,,,,,,,,,,,112.8874,113.8297,113.8319,113.8328,train,163.4154,164.4294,115.352,118.0795,red,stimuli/collisions/training/stim1.mp4,j,2.2225,,TRUE,118.0884,133.1033,0,1,[2.368199999988093],[2.368199999988093],red,green,blue,0,81,133.1038,136.5636,0,[],[],1,[136.59349999999998],[136.59349999999998],136.5675,141.496,1.9175,35,TRUE,TRUE,141.4973,144.4299,"[""space""]",[0.9007999999821266],[null],164.4296,165.2989,k,0.5322,,9,"[2.19,0.55,0.53,0.54,0.7,0.56,0.46,0.55,0.59,0.53]",9,0,9,0,1,,,,,,,,,,,,,,,,,,,,,,,,,,,,,,,,,,
,,,,,678408b0ce4bc7f5bd48469d,2026-02-02_13h49.56.429,causal,2025.1.1,Win32,59.88023952,,,,,,,,,,,,,,,,,,,,,,,,,,,,,,,,,,,,,,,,,,,,,,,,,,,,,,,,,,,,,,,,,,,,,,,,,,,,,,,,,,,,,,,,,0,0,0,0,1,,,,,,,,,,,,,,,,,,,,,,,,,,,,,
,,,,,678408b0ce4bc7f5bd48469d,2026-02-02_13h49.56.429,causal,2025.1.1,Win32,59.88023952,,,,,,,,,,,,,,,,,,,,,,,,,,,,,,,,165.3027,166.3461,166.3461,166.3462,train,183.8051,183.8053,167.8647,169.6455,green,stimuli/collisions/training/stim3.mp4,k,1.4242,,TRUE,169.6553,177.9524,100,1,[0.6832000000178766],[0.6832000000178766],red,green,blue,0,0,177.9548,180.9797,0,[],[],1,[181.010599999994],[181.01070000001786],180.9808,183.7989,1.8458,70,TRUE,FALSE,183.7993,183.8005,,,,183.8053,183.8062,,,,,,0,0,0,0,1,,,,,,,,,,,,,,,,,,,,,,,,,,,,,,,,,,
,,,,,678408b0ce4bc7f5bd48469d,2026-02-02_13h49.56.429,causal,2025.1.1,Win32,59.88023952,,,,,,,,,,,,,,,,,,,,,,,,,,,,,,,,,,,,,,,,,,,,,,,,,,,,,,,,,,,,,,,,,,,,,,,,,,,,,,,,,,,,,,,,,1,0,1,0,1,,,,,,,,,,,,,,,,,,,,,,,,,,,,,
,,,,,678408b0ce4bc7f5bd48469d,2026-02-02_13h49.56.429,causal,2025.1.1,Win32,59.88023952,,,,,,,,,,,,,,,,,,,,,,,,,,,,,,,,183.8066,184.8698,184.8706,184.871,train,194.4353,194.436,186.3815,189.6463,miss,stimuli/collisions/training/stim2.mp4,space,2.9208,,TRUE,189.6549,189.6613,,0,[],[],red,green,blue,,,189.6641,191.0288,0,[],[],1,[191.06020000001786],[191.06020000001786],191.0292,194.4294,1.0792,100,TRUE,FALSE,194.4295,194.4297,,,,194.4362,194.4386,,,,,,0,0,0,0,1,,,,,,,,,,,,,,,,,,,,,,,,,,,,,,,,,,
,,,,,678408b0ce4bc7f5bd48469d,2026-02-02_13h49.56.429,causal,2025.1.1,Win32,59.88023952,,,,,,,,,,,,,,,,,,,,,,,,,,,,,,,,,,,,,,,,,,,,,,,,,,,,,,,,,,,,,,,,,,,,,,,,,,,,,,,,,,,,,,,,,2,0,2,0,1,,,,,,,,,,,,,,,,,,,,,,,,,,,,,
,,,,,678408b0ce4bc7f5bd48469d,2026-02-02_13h49.56.429,causal,2025.1.1,Win32,59.88023952,,,,,,,,,,,,,,,,,,,,,,,,,,,,,,,,194.4391,195.2456,195.2458,195.2459,test,210.804,210.8048,196.7641,198.9628,blue,stimuli/collisions/hit/stim16.mp4,f,1.8374,,TRUE,198.971,206.4343,0,1,[0.8168000000119093],[0.8168000000119093],red,green,blue,79,0,206.4375,207.5622,0,[],[],1,[207.5933000000119],[207.5933000000119],207.5632,210.7984,0.9726,125,TRUE,FALSE,210.7985,210.7989,,,,210.8049,210.8057,,,,,,0,0,0,0,1,,,,,,,,,,,,,,,,,,,,,,,,,,,,,,,,,,
,,,,,678408b0ce4bc7f5bd48469d,2026-02-02_13h49.56.429,causal,2025.1.1,Win32,59.88023952,,,,,,,,,,,,,,,,,,,,,,,,,,,,,,,,,,,,,,,,,,,,,,,,,,,,,,,,,,,,,,,,,,,,,,,,,,,,,,,,,,,,,,,,,3,0,3,0,1,,,,,,,,,,,,,,,,,,,,,,,,,,,,,
,,,,,678408b0ce4bc7f5bd48469d,2026-02-02_13h49.56.429,causal,2025.1.1,Win32,59.88023952,,,,,,,,,,,,,,,,,,,,,,,,,,,,,,,,210.8061,211.5619,211.562,211.5621,test,228.5514,228.5528,213.0802,215.896,green,stimuli/collisions/hit/stim12.mp4,k,2.4548,,TRUE,215.9049,224.5172,71,1,[2.2332999999821084],[2.2334000000059575],red,green,blue,0,1,224.523,225.5124,0,[],[],1,[225.5435],[225.5435],225.5128,228.546,1.6552,155,TRUE,FALSE,228.5461,228.5462,,,,228.5531,228.5543,,,,,,0,0,0,0,1,,,,,,,,,,,,,,,,,,,,,,,,,,,,,,,,,,
,,,,,678408b0ce4bc7f5bd48469d,2026-02-02_13h49.56.429,causal,2025.1.1,Win32,59.88023952,,,,,,,,,,,,,,,,,,,,,,,,,,,,,,,,,,,,,,,,,,,,,,,,,,,,,,,,,,,,,,,,,,,,,,,,,,,,,,,,,,,,,,,,,4,0,4,0,1,,,,,,,,,,,,,,,,,,,,,,,,,,,,,
,,,,,678408b0ce4bc7f5bd48469d,2026-02-02_13h49.56.429,causal,2025.1.1,Win32,59.88023952,,,,,,,,,,,,,,,,,,,,,,,,,,,,,,,,228.5548,230.3955,230.3957,230.3957,catch,238.8023,238.8032,231.9136,234.2295,miss,stimuli/collisions/miss/stim6.mp4,space,1.9571,,TRUE,234.2387,234.255,,0,[],[],red,green,blue,,,234.2569,236.1957,0,[],[],1,[236.2272000000179],[236.2272000000179],236.1966,238.7958,2.0429,190,TRUE,FALSE,238.7959,238.7962,,,,238.8035,238.8053,,,,,,0,0,0,0,1,,,,,,,,,,,,,,,,,,,,,,,,,,,,,,,,,,
,,,,,678408b0ce4bc7f5bd48469d,2026-02-02_13h49.56.429,causal,2025.1.1,Win32,59.88023952,,,,,,,,,,,,,,,,,,,,,,,,,,,,,,,,,,,,,,,,,,,,,,,,,,,,,,,,,,,,,,,,,,,,,,,,,,,,,,,,,,,,,,,,,5,0,5,0,1,,,,,,,,,,,,,,,,,,,,,,,,,,,,,
,,,,,678408b0ce4bc7f5bd48469d,2026-02-02_13h49.56.429,causal,2025.1.1,Win32,59.88023952,,,,,,,,,,,,,,,,,,,,,,,,,,,,,,,,238.8056,239.4624,239.4625,239.4625,test,258.302,258.3026,240.9811,243.3785,green,stimuli/collisions/hit/stim4.mp4,k,2.0374,,TRUE,243.3878,253.42,1,1,[1.0347999999821127],[1.0347999999821127],red,green,blue,95,0,253.4221,254.3857,1,[254.41370000001788],[254.41380000001195],0,[],[],254.3871,258.2952,1.9726,185,FALSE,FALSE,258.2953,258.2955,,,,258.3029,258.3045,,,,,,0,0,0,0,1,,,,,,,,,,,,,,,,,,,,,,,,,,,,,,,,,,
,,,,,678408b0ce4bc7f5bd48469d,2026-02-02_13h49.56.429,causal,2025.1.1,Win32,59.88023952,,,,,,,,,,,,,,,,,,,,,,,,,,,,,,,,,,,,,,,,,,,,,,,,,,,,,,,,,,,,,,,,,,,,,,,,,,,,,,,,,,,,,,,,,6,0,6,0,1,,,,,,,,,,,,,,,,,,,,,,,,,,,,,
,,,,,678408b0ce4bc7f5bd48469d,2026-02-02_13h49.56.429,causal,2025.1.1,Win32,59.88023952,,,,,,,,,,,,,,,,,,,,,,,,,,,,,,,,258.3049,258.8787,258.8789,258.8789,test,275.8529,275.8534,260.3961,262.9951,blue,stimuli/collisions/hit/stim11.mp4,f,2.2376,,TRUE,263.0039,272.2329,0,1,[1.6657999999820845],[1.6657999999820845],red,green,blue,0,95,272.2395,273.1636,1,[273.194099999994],[273.194099999994],0,[],[],273.1652,275.8481,1.3324,180,FALSE,FALSE,275.8481,275.8483,,,,275.8537,275.8552,,,,,,0,0,0,0,1,,,,,,,,,,,,,,,,,,,,,,,,,,,,,,,,,,
,,,,,678408b0ce4bc7f5bd48469d,2026-02-02_13h49.56.429,causal,2025.1.1,Win32,59.88023952,,,,,,,,,,,,,,,,,,,,,,,,,,,,,,,,,,,,,,,,,,,,,,,,,,,,,,,,,,,,,,,,,,,,,,,,,,,,,,,,,,,,,,,,,7,0,7,0,1,,,,,,,,,,,,,,,,,,,,,,,,,,,,,
,,,,,678408b0ce4bc7f5bd48469d,2026-02-02_13h49.56.429,causal,2025.1.1,Win32,59.88023952,,,,,,,,,,,,,,,,,,,,,,,,,,,,,,,,275.8554,276.647,276.6481,276.649,test,307.6816,308.6955,278.1639,280.7286,miss,stimuli/collisions/hit/stim15.mp4,space,2.2047,,TRUE,280.7374,280.7522,,0,[],[],red,green,blue,,,280.7541,282.9295,1,[282.9615],[282.9615],0,[],[],282.93,285.5954,2.4353,175,FALSE,TRUE,285.5955,288.431,"[""space""]",[0.8028000000119278],[null],308.6955,309.6647,k,0.6327,,9,"[0.56,0.58,0.7,0.53,0.6,0.58,0.57,0.78,0.63]",9,0,9,0,1,,,,,,,,,,,,,,,,,,,,,,,,,,,,,,,,,,
,,,,,678408b0ce4bc7f5bd48469d,2026-02-02_13h49.56.429,causal,2025.1.1,Win32,59.88023952,,,,,,,,,,,,,,,,,,,,,,,,,,,,,,,,,,,,,,,,,,,,,,,,,,,,,,,,,,,,,,,,,,,,,,,,,,,,,,,,,,,,,,,,,8,0,8,0,1,,,,,,,,,,,,,,,,,,,,,,,,,,,,,
,,,,,678408b0ce4bc7f5bd48469d,2026-02-02_13h49.56.429,causal,2025.1.1,Win32,59.88023952,,,,,,,,,,,,,,,,,,,,,,,,,,,,,,,,309.6667,310.5618,310.562,310.562,catch,319.136,319.1362,312.0816,314.7619,miss,stimuli/collisions/miss/stim4.mp4,space,2.3199,,TRUE,314.7712,314.7795,,0,[],[],red,green,blue,,,314.7832,316.9641,0,[],[],1,[316.995],[316.995],316.966,319.1319,1.6801,205,TRUE,FALSE,319.1322,319.1331,,,,319.1363,319.1371,,,,,,0,0,0,0,1,,,,,,,,,,,,,,,,,,,,,,,,,,,,,,,,,,
,,,,,678408b0ce4bc7f5bd48469d,2026-02-02_13h49.56.429,causal,2025.1.1,Win32,59.88023952,,,,,,,,,,,,,,,,,,,,,,,,,,,,,,,,,,,,,,,,,,,,,,,,,,,,,,,,,,,,,,,,,,,,,,,,,,,,,,,,,,,,,,,,,9,0,9,0,1,,,,,,,,,,,,,,,,,,,,,,,,,,,,,
,,,,,678408b0ce4bc7f5bd48469d,2026-02-02_13h49.56.429,causal,2025.1.1,Win32,59.88023952,,,,,,,,,,,,,,,,,,,,,,,,,,,,,,,,319.1377,319.729,319.729,319.7291,test,332.6525,332.653,321.2319,323.3783,red,stimuli/collisions/hit/stim6.mp4,j,1.7879,,TRUE,323.3875,328.453,0,1,[0.6528000000118936],[0.6528000000118936],red,green,blue,1,90,328.4548,329.9789,0,[],[],1,[330.01009999999405],[330.01009999999405],329.9797,332.6461,1.4521,235,TRUE,FALSE,332.6463,332.6465,,,,332.6533,332.6556,,,,,,0,0,0,0,1,,,,,,,,,,,,,,,,,,,,,,,,,,,,,,,,,,
,,,,,678408b0ce4bc7f5bd48469d,2026-02-02_13h49.56.429,causal,2025.1.1,Win32,59.88023952,,,,,,,,,,,,,,,,,,,,,,,,,,,,,,,,,,,,,,,,,,,,,,,,,,,,,,,,,,,,,,,,,,,,,,,,,,,,,,,,,,,,,,,,,10,0,10,0,1,,,,,,,,,,,,,,,,,,,,,,,,,,,,,
,,,,,678408b0ce4bc7f5bd48469d,2026-02-02_13h49.56.429,causal,2025.1.1,Win32,59.88023952,,,,,,,,,,,,,,,,,,,,,,,,,,,,,,,,332.6559,334.1454,334.1455,334.1456,test,346.6362,346.6369,335.6645,337.8956,green,stimuli/collisions/hit/stim3.mp4,k,1.8706,,TRUE,337.9051,343.3672,97,1,[0.6158000000119159],[0.6158000000119159],red,green,blue,1,0,343.3711,343.9822,0,[],[],1,[344.0107000000179],[344.0107000000179],343.9837,346.6315,1.4694,265,TRUE,FALSE,346.6316,346.632,,,,346.6371,346.6383,,,,,,0,0,0,0,1,,,,,,,,,,,,,,,,,,,,,,,,,,,,,,,,,,
,,,,,678408b0ce4bc7f5bd48469d,2026-02-02_13h49.56.429,causal,2025.1.1,Win32,59.88023952,,,,,,,,,,,,,,,,,,,,,,,,,,,,,,,,,,,,,,,,,,,,,,,,,,,,,,,,,,,,,,,,,,,,,,,,,,,,,,,,,,,,,,,,,11,0,11,0,1,,,,,,,,,,,,,,,,,,,,,,,,,,,,,
,,,,,678408b0ce4bc7f5bd48469d,2026-02-02_13h49.56.429,causal,2025.1.1,Win32,59.88023952,,,,,,,,,,,,,,,,,,,,,,,,,,,,,,,,346.6386,347.246,347.2461,347.2463,catch,355.1847,355.1858,348.7643,351.1622,miss,stimuli/collisions/miss/stim1.mp4,space,2.0367,,TRUE,351.1703,351.1773,,0,[],[],red,green,blue,,,351.1805,352.1797,0,[],[],1,[352.2110999999941],[352.2110999999941],352.1801,355.1794,1.9633,300,TRUE,FALSE,355.1794,355.1795,,,,355.186,355.1875,,,,,,0,0,0,0,1,,,,,,,,,,,,,,,,,,,,,,,,,,,,,,,,,,
,,,,,678408b0ce4bc7f5bd48469d,2026-02-02_13h49.56.429,causal,2025.1.1,Win32,59.88023952,,,,,,,,,,,,,,,,,,,,,,,,,,,,,,,,,,,,,,,,,,,,,,,,,,,,,,,,,,,,,,,,,,,,,,,,,,,,,,,,,,,,,,,,,12,0,12,0,1,,,,,,,,,,,,,,,,,,,,,,,,,,,,,
,,,,,678408b0ce4bc7f5bd48469d,2026-02-02_13h49.56.429,causal,2025.1.1,Win32,59.88023952,,,,,,,,,,,,,,,,,,,,,,,,,,,,,,,,355.1879,356.0121,356.0121,356.0122,test,368.3689,368.3694,357.5305,360.5456,blue,stimuli/collisions/hit/stim13.mp4,f,2.6564,,TRUE,360.5552,365.4325,0,1,[0.5496999999880359],[0.5496999999880359],red,green,blue,98,0,365.4384,366.2631,0,[],[],1,[366.29400000000004],[366.29400000000004],366.2635,368.3627,1.1136,330,TRUE,FALSE,368.3628,368.3631,,,,368.3695,368.3722,,,,,,0,0,0,0,1,,,,,,,,,,,,,,,,,,,,,,,,,,,,,,,,,,
,,,,,678408b0ce4bc7f5bd48469d,2026-02-02_13h49.56.429,causal,2025.1.1,Win32,59.88023952,,,,,,,,,,,,,,,,,,,,,,,,,,,,,,,,,,,,,,,,,,,,,,,,,,,,,,,,,,,,,,,,,,,,,,,,,,,,,,,,,,,,,,,,,13,0,13,0,1,,,,,,,,,,,,,,,,,,,,,,,,,,,,,
,,,,,678408b0ce4bc7f5bd48469d,2026-02-02_13h49.56.429,causal,2025.1.1,Win32,59.88023952,,,,,,,,,,,,,,,,,,,,,,,,,,,,,,,,368.3725,369.0464,369.0465,369.0465,test,381.9165,381.9179,370.565,373.4958,red,stimuli/collisions/hit/stim17.mp4,j,2.5693,,TRUE,373.5035,378.7677,0,1,[0.5502000000178668],[0.5502000000178668],red,green,blue,2,49,378.7713,379.2792,0,[],[],1,[379.3103000000119],[379.3103000000119],379.28,381.9121,1.7407,360,TRUE,FALSE,381.9121,381.9125,,,,381.9183,381.92,,,,,,0,0,0,0,1,,,,,,,,,,,,,,,,,,,,,,,,,,,,,,,,,,
,,,,,678408b0ce4bc7f5bd48469d,2026-02-02_13h49.56.429,causal,2025.1.1,Win32,59.88023952,,,,,,,,,,,,,,,,,,,,,,,,,,,,,,,,,,,,,,,,,,,,,,,,,,,,,,,,,,,,,,,,,,,,,,,,,,,,,,,,,,,,,,,,,14,0,14,0,1,,,,,,,,,,,,,,,,,,,,,,,,,,,,,
,,,,,678408b0ce4bc7f5bd48469d,2026-02-02_13h49.56.429,causal,2025.1.1,Win32,59.88023952,,,,,,,,,,,,,,,,,,,,,,,,,,,,,,,,381.9206,382.8794,382.8796,382.8797,test,395.9842,395.9852,384.3983,386.6624,blue,stimuli/collisions/hit/stim9.mp4,f,1.9032,,TRUE,386.6709,392.3995,0,1,[0.46719999998805406],[0.46719999998805406],red,green,blue,0,97,392.4045,393.4466,1,[393.47790000000595],[393.47790000000595],0,[],[],393.4486,395.9785,1.0668,355,FALSE,FALSE,395.9786,395.9787,,,,395.9853,395.9866,,,,,,0,0,0,0,1,,,,,,,,,,,,,,,,,,,,,,,,,,,,,,,,,,
,,,,,678408b0ce4bc7f5bd48469d,2026-02-02_13h49.56.429,causal,2025.1.1,Win32,59.88023952,,,,,,,,,,,,,,,,,,,,,,,,,,,,,,,,,,,,,,,,,,,,,,,,,,,,,,,,,,,,,,,,,,,,,,,,,,,,,,,,,,,,,,,,,15,0,15,0,1,,,,,,,,,,,,,,,,,,,,,,,,,,,,,
,,,,,678408b0ce4bc7f5bd48469d,2026-02-02_13h49.56.429,causal,2025.1.1,Win32,59.88023952,,,,,,,,,,,,,,,,,,,,,,,,,,,,,,,,395.9874,396.6293,396.6294,396.6295,test,430.2153,431.2292,398.1474,399.8456,red,stimuli/collisions/hit/stim1.mp4,j,1.3412,,TRUE,399.8544,406.137,0,1,[0.8199999999999932],[0.8200999999940564],red,green,blue,0,93,406.1389,407.4464,0,[],[],1,[407.47740000000596],[407.47740000000596],407.4478,409.896,2.0288,390,TRUE,TRUE,409.896,412.6797,"[""space""]",[0.7499000000059937],[null],431.2293,432.1987,k,0.6087,,9,"[0.56,0.5,0.58,0.52,0.64,0.78,0.41,0.55,0.62,0.61]",9,0,9,0,1,,,,,,,,,,,,,,,,,,,,,,,,,,,,,,,,,,
,,,,,678408b0ce4bc7f5bd48469d,2026-02-02_13h49.56.429,causal,2025.1.1,Win32,59.88023952,,,,,,,,,,,,,,,,,,,,,,,,,,,,,,,,,,,,,,,,,,,,,,,,,,,,,,,,,,,,,,,,,,,,,,,,,,,,,,,,,,,,,,,,,16,0,16,0,1,,,,,,,,,,,,,,,,,,,,,,,,,,,,,
,,,,,678408b0ce4bc7f5bd48469d,2026-02-02_13h49.56.429,causal,2025.1.1,Win32,59.88023952,,,,,,,,,,,,,,,,,,,,,,,,,,,,,,,,432.2005,432.9787,432.9788,432.9788,test,462.4989,463.5123,434.4806,436.5474,miss,stimuli/collisions/hit/stim10.mp4,space,1.7149,,TRUE,436.5549,436.5693,,0,[],[],red,green,blue,,,436.5709,438.045,0,[],[],1,[438.0765999999941],[438.0765999999941],438.0455,441.2629,2.5251,350,TRUE,TRUE,441.263,444.0794,"[""space""]",[0.784099999994055],[null],463.5124,464.3637,f,0.4999,,9,"[0.74,0.52,0.76,0.5,0.61,0.86,0.53,0.99,0.47,0.5]",9,0,9,0,1,,,,,,,,,,,,,,,,,,,,,,,,,,,,,,,,,,
,,,,,678408b0ce4bc7f5bd48469d,2026-02-02_13h49.56.429,causal,2025.1.1,Win32,59.88023952,,,,,,,,,,,,,,,,,,,,,,,,,,,,,,,,,,,,,,,,,,,,,,,,,,,,,,,,,,,,,,,,,,,,,,,,,,,,,,,,,,,,,,,,,17,0,17,0,1,,,,,,,,,,,,,,,,,,,,,,,,,,,,,
,,,,,678408b0ce4bc7f5bd48469d,2026-02-02_13h49.56.429,causal,2025.1.1,Win32,59.88023952,,,,,,,,,,,,,,,,,,,,,,,,,,,,,,,,464.3652,464.9789,464.979,464.979,catch,473.2847,473.2852,466.4968,468.8458,miss,stimuli/collisions/miss/stim2.mp4,space,1.9836,,TRUE,468.8557,468.8681,,0,[],[],red,green,blue,,,468.8702,469.9985,0,[],[],1,[470.0295],[470.0295],470.0002,473.2789,2.0164,385,TRUE,FALSE,473.2789,473.2792,,,,473.2853,473.2865,,,,,,0,0,0,0,1,,,,,,,,,,,,,,,,,,,,,,,,,,,,,,,,,,
,,,,,678408b0ce4bc7f5bd48469d,2026-02-02_13h49.56.429,causal,2025.1.1,Win32,59.88023952,,,,,,,,,,,,,,,,,,,,,,,,,,,,,,,,,,,,,,,,,,,,,,,,,,,,,,,,,,,,,,,,,,,,,,,,,,,,,,,,,,,,,,,,,18,0,18,0,1,,,,,,,,,,,,,,,,,,,,,,,,,,,,,
,,,,,678408b0ce4bc7f5bd48469d,2026-02-02_13h49.56.429,causal,2025.1.1,Win32,59.88023952,,,,,,,,,,,,,,,,,,,,,,,,,,,,,,,,473.2869,473.8134,473.8135,473.8135,test,487.8182,487.8194,475.331,478.9288,red,stimuli/collisions/hit/stim5.mp4,j,3.2349,,TRUE,478.9381,484.201,0,1,[0.5174999999999841],[0.5174999999999841],red,green,blue,0,94,484.2044,485.4148,0,[],[],1,[485.4437000000179],[485.4437000000179],485.4167,487.8127,0.7051,410,TRUE,FALSE,487.8128,487.813,,,,487.8196,487.8205,,,,,,0,0,0,0,1,,,,,,,,,,,,,,,,,,,,,,,,,,,,,,,,,,
,,,,,678408b0ce4bc7f5bd48469d,2026-02-02_13h49.56.429,causal,2025.1.1,Win32,59.88023952,,,,,,,,,,,,,,,,,,,,,,,,,,,,,,,,,,,,,,,,,,,,,,,,,,,,,,,,,,,,,,,,,,,,,,,,,,,,,,,,,,,,,,,,,19,0,19,0,1,,,,,,,,,,,,,,,,,,,,,,,,,,,,,
,,,,,678408b0ce4bc7f5bd48469d,2026-02-02_13h49.56.429,causal,2025.1.1,Win32,59.88023952,,,,,,,,,,,,,,,,,,,,,,,,,,,,,,,,487.8209,488.996,488.9961,488.9961,catch,496.4174,496.4186,490.5135,492.9453,miss,stimuli/collisions/miss/stim3.mp4,space,2.0664,,TRUE,492.9565,492.9715,,0,[],[],red,green,blue,,,492.9732,493.8628,0,[],[],1,[493.8942000000179],[493.8942000000179],493.8636,496.4123,1.9336,445,TRUE,FALSE,496.4123,496.4127,,,,496.4188,496.4204,,,,,,0,0,0,0,1,,,,,,,,,,,,,,,,,,,,,,,,,,,,,,,,,,
,,,,,678408b0ce4bc7f5bd48469d,2026-02-02_13h49.56.429,causal,2025.1.1,Win32,59.88023952,,,,,,,,,,,,,,,,,,,,,,,,,,,,,,,,,,,,,,,,,,,,,,,,,,,,,,,,,,,,,,,,,,,,,,,,,,,,,,,,,,,,,,,,,20,0,20,0,1,,,,,,,,,,,,,,,,,,,,,,,,,,,,,
,,,,,678408b0ce4bc7f5bd48469d,2026-02-02_13h49.56.429,causal,2025.1.1,Win32,59.88023952,,,,,,,,,,,,,,,,,,,,,,,,,,,,,,,,496.4211,497.6788,497.6789,497.6789,catch,532.5815,533.5951,499.1971,502.0124,green,stimuli/collisions/miss/stim5.mp4,k,2.4467,,TRUE,502.0207,509.1821,0,1,[0.7666999999880773],[0.7666999999880773],red,green,blue,1,0,509.1886,509.9964,1,[510.0278000000119],[510.0278000000119],0,[],[],509.9979,512.4959,1.5533,440,FALSE,TRUE,512.4961,515.1291,"[""space""]",[0.6002999999820986],[null],533.5952,534.548,j,0.591,,9,"[0.47,0.51,0.53,0.53,0.73,0.52,0.59,0.58,0.63,0.59]",9,0,9,0,1,,,,,,,,,,,,,,,,,,,,,,,,,,,,,,,,,,
,,,,,678408b0ce4bc7f5bd48469d,2026-02-02_13h49.56.429,causal,2025.1.1,Win32,59.88023952,,,,,,,,,,,,,,,,,,,,,,,,,,,,,,,,,,,,,,,,,,,,,,,,,,,,,,,,,,,,,,,,,,,,,,,,,,,,,,,,,,,,,,,,,21,0,21,0,1,,,,,,,,,,,,,,,,,,,,,,,,,,,,,
,,,,,678408b0ce4bc7f5bd48469d,2026-02-02_13h49.56.429,causal,2025.1.1,Win32,59.88023952,,,,,,,,,,,,,,,,,,,,,,,,,,,,,,,,534.5496,535.312,535.312,535.312,test,552.2678,552.2688,536.8317,540.7793,blue,stimuli/collisions/hit/stim2.mp4,f,3.5307,,TRUE,540.7884,548.7344,0,1,[1.8664000000060241],[1.8664000000060241],red,green,blue,100,0,548.7374,549.5465,0,[],[],1,[549.5774000000059],[549.5774000000059],549.549,552.2624,0.3793,465,TRUE,FALSE,552.2625,552.2626,,,,552.269,552.2712,,,,,,0,0,0,0,1,,,,,,,,,,,,,,,,,,,,,,,,,,,,,,,,,,
,,,,,678408b0ce4bc7f5bd48469d,2026-02-02_13h49.56.429,causal,2025.1.1,Win32,59.88023952,,,,,,,,,,,,,,,,,,,,,,,,,,,,,,,,,,,,,,,,,,,,,,,,,,,,,,,,,,,,,,,,,,,,,,,,,,,,,,,,,,,,,,,,,22,0,22,0,1,,,,,,,,,,,,,,,,,,,,,,,,,,,,,
,,,,,678408b0ce4bc7f5bd48469d,2026-02-02_13h49.56.429,causal,2025.1.1,Win32,59.88023952,,,,,,,,,,,,,,,,,,,,,,,,,,,,,,,,552.2717,553.4457,553.4459,553.4459,test,567.5007,567.502,554.9639,557.829,blue,stimuli/collisions/hit/stim8.mp4,f,2.4838,,TRUE,557.8374,563.937,1,1,[0.71939999997619],[0.7195000000000391],red,green,blue,100,0,563.9403,564.7469,0,[],[],1,[564.777700000018],[564.777700000018],564.7486,567.4963,0.8562,490,TRUE,FALSE,567.4964,567.4965,,,,567.5025,567.5053,,,,,,0,0,0,0,1,,,,,,,,,,,,,,,,,,,,,,,,,,,,,,,,,,
,,,,,678408b0ce4bc7f5bd48469d,2026-02-02_13h49.56.429,causal,2025.1.1,Win32,59.88023952,,,,,,,,,,,,,,,,,,,,,,,,,,,,,,,,,,,,,,,,,,,,,,,,,,,,,,,,,,,,,,,,,,,,,,,,,,,,,,,,,,,,,,,,,23,0,23,0,1,,,,,,,,,,,,,,,,,,,,,,,,,,,,,
,,,,,678408b0ce4bc7f5bd48469d,2026-02-02_13h49.56.429,causal,2025.1.1,Win32,59.88023952,,,,,,,,,,,,,,,,,,,,,,,,,,,,,,,,567.5057,569.8285,569.8286,569.8287,test,602.9825,603.9952,571.3475,573.9791,blue,stimuli/collisions/hit/stim7.mp4,k,2.5007,,TRUE,573.9891,579.5654,100,1,[0.44979999998213316],[0.44979999998213316],red,green,blue,0,0,579.5697,580.2961,1,[580.327300000012],[580.327300000012],0,[],[],580.2973,583.0125,1.0027,485,FALSE,TRUE,583.0125,585.1792,"[""space""]",[0.1514000000059923],[null],603.9953,604.9325,j,0.5848,,9,"[0.58,0.72,0.5,0.54,0.55,0.91,0.61,0.42,0.58,0.58]",9,0,9,0,1,,,,,,,,,,,,,,,,,,,,,,,,,,,,,,,,,,
,,,,,678408b0ce4bc7f5bd48469d,2026-02-02_13h49.56.429,causal,2025.1.1,Win32,59.88023952,,,,,,,,,,,,,,,,,,,,,,,,,,,,,,,,,,,,,,,,,,,,,,,,,,,,,,,,,,,,,,,,,,,,,,,,,,,,,,,,,,,,,,,,,24,0,24,0,1,,,,,,,,,,,,,,,,,,,,,,,,,,,,,
,,,,,678408b0ce4bc7f5bd48469d,2026-02-02_13h49.56.429,causal,2025.1.1,Win32,59.88023952,,,,,,,,,,,,,,,,,,,,,,,,,,,,,,,,604.9341,605.6122,605.6123,605.6125,test,619.0004,619.0018,607.1294,609.762,red,stimuli/collisions/hit/stim14.mp4,j,2.253,,TRUE,609.7669,614.7644,0,1,[0.5321999999880518],[0.5321999999880518],red,green,blue,0,100,614.7684,615.3962,0,[],[],1,[615.4273000000119],[615.4273000000119],615.3967,618.9959,0.687,510,TRUE,FALSE,618.996,618.9961,,,,619.0021,619.0044,,,,,,0,0,0,0,1,,,,,,,,,,,,,,,,,,,,,,,,,,,,,,,,,,
,,,,,678408b0ce4bc7f5bd48469d,2026-02-02_13h49.56.429,causal,2025.1.1,Win32,59.88023952,,,,,,,,,,,,,,,,,,,,,,,,,,,,,,,,,,,,,,,,,,,,,,,,,,,,,,,,,,,,,,,,,,,,,,,,,,,,,,,,,,,,,,,,,25,0,25,0,1,,,,,,,,,,,,,,,,,,,,,,,,,,,,,
,,,,,678408b0ce4bc7f5bd48469d,2026-02-02_13h49.56.429,causal,2025.1.1,Win32,59.88023952,,,,,,,,,,,,,,,,,,,,,,,,,,,,,,,,619.005,620.0951,620.0952,620.0953,test,635.0353,635.036,621.6146,624.2127,blue,stimuli/collisions/hit/stim18.mp4,f,2.2345,,TRUE,624.2212,631.6335,0,1,[2.8315999999940686],[2.8315999999940686],red,green,blue,100,0,631.6388,632.4964,0,[],[],1,[632.527],[632.527],632.4978,635.0299,0.9055,535,TRUE,FALSE,635.0299,635.0302,,,,635.0362,635.0379,,,,,,0,0,0,0,1,,,,,,,,,,,,,,,,,,,,,,,,,,,,,,,,,,
,,,,,678408b0ce4bc7f5bd48469d,2026-02-02_13h49.56.429,causal,2025.1.1,Win32,59.88023952,,,,,,,,,,,,,,,,,,,,,,,,,,,,,,,,,,,,,,,,,,,,,,,,,,,,,,,,,,,,,,,,,,,,,,,,,,,,,,,,,,,,,,,,,26,0,26,0,1,,,,,,,,,,,,,,,,,,,,,,,,,,,,,
,,,,,678408b0ce4bc7f5bd48469d,2026-02-02_13h49.56.429,causal,2025.1.1,Win32,59.88023952,,,,,,,,,,,,,,,,,,,,,,,,,,,,,,,,,,,,,,,,,,,,,,,,,,,,,,,,,,,,,,,,,,,,,,,,,,,,,,,,,,,,,,,,,,,,,,635.0386,642.396,,,,,,,,,,,,,,,,,,,,,,,,,,,
,,,,,678408b0ce4bc7f5bd48469d,2026-02-02_13h49.56.429,causal,2025.1.1,Win32,59.88023952,,,,,,,,,,,,,,,,,,,,,,,,,,,,,,,,,,,,,,,,,,,,,,,,,,,,,,,,,,,,,,,,,,,,,,,,,,,,,,,,,,,,,,,,,,,,,,,,642.3969,649.2623,,,,,,,,,,,,,,,,,,,,,,,,,
,,,,,678408b0ce4bc7f5bd48469d,2026-02-02_13h49.56.429,causal,2025.1.1,Win32,59.88023952,,,,,,,,,,,,,,,,,,,,,,,,,,,,,,,,649.2698,651.362,,,,651.3677,652.8785,,,,stimuli/collisions/calibration/stim6.mp4,,,,,,,,,,,,,,,,,,,,,,,,,,,,,,,,,,,,,,,,,,,,,,,,,,,,,,,,651.3651,651.3671,652.8816,655.5464,655.5504,660.313,0,[],[],1,[660.3190000000001],[660.3190000000001],TRUE,FALSE,FALSE,660.3135,664.2126,"[""space""]",[2.866599999994037],[null],0,0,0,0,1
,,,,,678408b0ce4bc7f5bd48469d,2026-02-02_13h49.56.429,causal,2025.1.1,Win32,59.88023952,,,,,,,,,,,,,,,,,,,,,,,,,,,,,,,,664.2156,665.1456,,,,665.147,666.6623,,,,stimuli/collisions/calibration/stim1.mp4,,,,,,,,,,,,,,,,,,,,,,,,,,,,,,,,,,,,,,,,,,,,,,,,,,,,,,,,665.1462,665.1468,666.6629,669.9823,669.9891,670.8288,1,[670.8355999999941],[670.8357000000179],0,[],[],FALSE,FALSE,TRUE,670.8289,672.615,"[""space""]",[0.7670999999940022],[null],1,0,1,0,1
,,,,,678408b0ce4bc7f5bd48469d,2026-02-02_13h49.56.429,causal,2025.1.1,Win32,59.88023952,,,,,,,,,,,,,,,,,,,,,,,,,,,,,,,,672.617,677.4456,,,,677.446,678.9492,,,,stimuli/collisions/calibration/stim9.mp4,,,,,,,,,,,,,,,,,,,,,,,,,,,,,,,,,,,,,,,,,,,,,,,,,,,,,,,,677.4459,677.4459,678.9502,682.0467,682.0545,682.5624,1,[682.5693000000119],[682.5693000000119],0,[],[],FALSE,FALSE,TRUE,682.5625,683.9621,"[""space""]",[0.36799999999993815],[null],2,0,2,0,1
,,,,,678408b0ce4bc7f5bd48469d,2026-02-02_13h49.56.429,causal,2025.1.1,Win32,59.88023952,,,,,,,,,,,,,,,,,,,,,,,,,,,,,,,,683.9629,688.7295,,,,688.7315,690.2452,,,,stimuli/collisions/calibration/stim11.mp4,,,,,,,,,,,,,,,,,,,,,,,,,,,,,,,,,,,,,,,,,,,,,,,,,,,,,,,,688.7302,688.731,690.2464,693.1496,693.1583,693.512,0,[],[],1,[693.518400000006],[693.518400000006],TRUE,TRUE,TRUE,693.5121,695.2332,"[""space""]",[0.701099999994085],[null],3,0,3,0,1
,,,,,678408b0ce4bc7f5bd48469d,2026-02-02_13h49.56.429,causal,2025.1.1,Win32,59.88023952,,,,,,,,,,,,,,,,,,,,,,,,,,,,,,,,695.2351,698.2629,,,,698.2646,699.782,,,,stimuli/collisions/calibration/stim3.mp4,,,,,,,,,,,,,,,,,,,,,,,,,,,,,,,,,,,,,,,,,,,,,,,,,,,,,,,,698.264,698.2645,699.7848,703.9125,703.9217,704.3953,1,[704.4020999999941],[704.4020999999941],0,[],[],FALSE,FALSE,TRUE,704.3954,706.0455,"[""space""]",[0.6176000000237991],[null],4,0,4,0,1
,,,,,678408b0ce4bc7f5bd48469d,2026-02-02_13h49.56.429,causal,2025.1.1,Win32,59.88023952,,,,,,,,,,,,,,,,,,,,,,,,,,,,,,,,706.0466,706.8124,,,,706.8152,708.3294,,,,stimuli/collisions/calibration/stim15.mp4,,,,,,,,,,,,,,,,,,,,,,,,,,,,,,,,,,,,,,,,,,,,,,,,,,,,,,,,706.8142,706.815,708.332,711.6628,711.6737,712.3291,1,[712.336],[712.336],0,[],[],FALSE,TRUE,FALSE,712.3292,713.9798,"[""space""]",[0.6179999999999382],[null],5,0,5,0,1
,,,,,678408b0ce4bc7f5bd48469d,2026-02-02_13h49.56.429,causal,2025.1.1,Win32,59.88023952,,,,,,,,,,,,,,,,,,,,,,,,,,,,,,,,713.9807,715.0458,,,,715.0486,716.564,,,,stimuli/collisions/calibration/stim19.mp4,,,,,,,,,,,,,,,,,,,,,,,,,,,,,,,,,,,,,,,,,,,,,,,,,,,,,,,,715.0483,715.0485,716.5658,719.6141,719.6226,719.9965,0,[],[],1,[720.002700000018],[720.002700000018],TRUE,FALSE,FALSE,719.9973,721.629,"[""space""]",[0.6000999999940859],[null],6,0,6,0,1
,,,,,678408b0ce4bc7f5bd48469d,2026-02-02_13h49.56.429,causal,2025.1.1,Win32,59.88023952,,,,,,,,,,,,,,,,,,,,,,,,,,,,,,,,721.6316,724.8285,,,,724.8301,726.3454,,,,stimuli/collisions/calibration/stim13.mp4,,,,,,,,,,,,,,,,,,,,,,,,,,,,,,,,,,,,,,,,,,,,,,,,,,,,,,,,724.8294,724.8298,726.3469,729.2787,729.2886,729.7123,0,[],[],1,[729.7187000000179],[729.7187000000179],TRUE,FALSE,FALSE,729.7124,731.4791,"[""space""]",[0.7334000000059859],[null],7,0,7,0,1
,,,,,678408b0ce4bc7f5bd48469d,2026-02-02_13h49.56.429,causal,2025.1.1,Win32,59.88023952,,,,,,,,,,,,,,,,,,,,,,,,,,,,,,,,731.4798,732.0828,,,,732.0851,733.5961,,,,stimuli/collisions/calibration/stim5.mp4,,,,,,,,,,,,,,,,,,,,,,,,,,,,,,,,,,,,,,,,,,,,,,,,,,,,,,,,732.0842,732.0849,733.5976,737.796,737.8068,738.3293,1,[738.3362000000179],[738.3362000000179],0,[],[],FALSE,FALSE,TRUE,738.3294,740.0965,"[""space""]",[0.7333000000119227],[null],8,0,8,0,1
,,,,,678408b0ce4bc7f5bd48469d,2026-02-02_13h49.56.429,causal,2025.1.1,Win32,59.88023952,,,,,,,,,,,,,,,,,,,,,,,,,,,,,,,,740.0979,740.812,,,,740.8137,742.3293,,,,stimuli/collisions/calibration/stim20.mp4,,,,,,,,,,,,,,,,,,,,,,,,,,,,,,,,,,,,,,,,,,,,,,,,,,,,,,,,740.8129,740.8135,742.332,745.0963,745.1069,745.5162,0,[],[],1,[745.5223000000119],[745.5223000000119],TRUE,TRUE,TRUE,745.5165,747.9622,"[""space""]",[1.4175999999940814],[null],9,0,9,0,1
,,,,,678408b0ce4bc7f5bd48469d,2026-02-02_13h49.56.429,causal,2025.1.1,Win32,59.88023952,,,,,,,,,,,,,,,,,,,,,,,,,,,,,,,,747.9629,748.7119,,,,748.7141,750.2294,,,,stimuli/collisions/calibration/stim12.mp4,,,,,,,,,,,,,,,,,,,,,,,,,,,,,,,,,,,,,,,,,,,,,,,,,,,,,,,,748.7128,748.7138,750.2309,753.0622,753.0725,753.529,1,[753.5358000000119],[753.5358000000119],0,[],[],FALSE,FALSE,TRUE,753.529,755.1785,"[""space""]",[0.6168000000118354],[null],10,0,10,0,1
,,,,,678408b0ce4bc7f5bd48469d,2026-02-02_13h49.56.429,causal,2025.1.1,Win32,59.88023952,,,,,,,,,,,,,,,,,,,,,,,,,,,,,,,,755.1795,755.932,,,,755.9339,757.4453,,,,stimuli/collisions/calibration/stim14.mp4,,,,,,,,,,,,,,,,,,,,,,,,,,,,,,,,,,,,,,,,,,,,,,,,,,,,,,,,755.9332,755.9337,757.4461,760.8959,760.9058,761.2295,0,[],[],1,[761.235900000006],[761.235900000006],TRUE,FALSE,FALSE,761.2296,763.0788,"[""space""]",[0.8170000000000073],[null],11,0,11,0,1
,,,,,678408b0ce4bc7f5bd48469d,2026-02-02_13h49.56.429,causal,2025.1.1,Win32,59.88023952,,,,,,,,,,,,,,,,,,,,,,,,,,,,,,,,763.0796,764.079,,,,764.0797,765.596,,,,stimuli/collisions/calibration/stim7.mp4,,,,,,,,,,,,,,,,,,,,,,,,,,,,,,,,,,,,,,,,,,,,,,,,,,,,,,,,764.0795,764.0797,765.5989,768.2668,768.2749,768.8959,0,[],[],1,[768.902400000006],[768.902400000006],TRUE,TRUE,TRUE,768.8961,771.1138,"[""space""]",[1.1840000000000828],[null],12,0,12,0,1
,,,,,678408b0ce4bc7f5bd48469d,2026-02-02_13h49.56.429,causal,2025.1.1,Win32,59.88023952,,,,,,,,,,,,,,,,,,,,,,,,,,,,,,,,771.1164,771.7455,,,,771.7476,773.2619,,,,stimuli/collisions/calibration/stim8.mp4,,,,,,,,,,,,,,,,,,,,,,,,,,,,,,,,,,,,,,,,,,,,,,,,,,,,,,,,771.7461,771.7472,773.2637,776.7956,776.8047,777.3117,1,[777.318599999994],[777.318599999994],0,[],[],FALSE,FALSE,TRUE,777.3118,778.913,"[""space""]",[0.5673000000118691],[null],13,0,13,0,1
,,,,,678408b0ce4bc7f5bd48469d,2026-02-02_13h49.56.429,causal,2025.1.1,Win32,59.88023952,,,,,,,,,,,,,,,,,,,,,,,,,,,,,,,,778.9135,779.2991,,,,779.3013,780.8119,,,,stimuli/collisions/calibration/stim10.mp4,,,,,,,,,,,,,,,,,,,,,,,,,,,,,,,,,,,,,,,,,,,,,,,,,,,,,,,,779.3001,779.301,780.814,783.5787,783.5897,784.0461,0,[],[],1,[784.052300000012],[784.052300000012],TRUE,TRUE,TRUE,784.0461,785.9437,"[""space""]",[0.8677000000178623],[null],14,0,14,0,1
,,,,,678408b0ce4bc7f5bd48469d,2026-02-02_13h49.56.429,causal,2025.1.1,Win32,59.88023952,,,,,,,,,,,,,,,,,,,,,,,,,,,,,,,,785.9442,788.3473,,,,788.3489,789.8628,,,,stimuli/collisions/calibration/stim2.mp4,,,,,,,,,,,,,,,,,,,,,,,,,,,,,,,,,,,,,,,,,,,,,,,,,,,,,,,,788.3482,788.3487,789.8655,793.5674,793.5737,794.0624,1,[794.0693000000119],[794.0693000000119],0,[],[],FALSE,TRUE,FALSE,794.0625,795.7192,"[""space""]",[0.6270999999940159],[null],15,0,15,0,1
,,,,,678408b0ce4bc7f5bd48469d,2026-02-02_13h49.56.429,causal,2025.1.1,Win32,59.88023952,,,,,,,,,,,,,,,,,,,,,,,,,,,,,,,,795.7197,796.3797,,,,796.3819,797.9001,,,,stimuli/collisions/calibration/stim18.mp4,,,,,,,,,,,,,,,,,,,,,,,,,,,,,,,,,,,,,,,,,,,,,,,,,,,,,,,,796.3813,796.3818,797.9022,801.2963,801.3041,801.6465,1,[801.653400000006],[801.653400000006],0,[],[],FALSE,FALSE,TRUE,801.6466,803.8459,"[""space""]",[1.1656999999880782],[null],16,0,16,0,1
,,,,,678408b0ce4bc7f5bd48469d,2026-02-02_13h49.56.429,causal,2025.1.1,Win32,59.88023952,,,,,,,,,,,,,,,,,,,,,,,,,,,,,,,,803.8466,804.4791,,,,804.4813,805.9951,,,,stimuli/collisions/calibration/stim17.mp4,,,,,,,,,,,,,,,,,,,,,,,,,,,,,,,,,,,,,,,,,,,,,,,,,,,,,,,,804.4799,804.4809,805.9971,809.1967,809.2051,809.5794,0,[],[],1,[809.5857000000179],[809.5857000000179],TRUE,TRUE,TRUE,809.5794,811.246,"[""space""]",[0.6345000000000027],[null],17,0,17,0,1
,,,,,678408b0ce4bc7f5bd48469d,2026-02-02_13h49.56.429,causal,2025.1.1,Win32,59.88023952,,,,,,,,,,,,,,,,,,,,,,,,,,,,,,,,811.2467,811.5624,,,,811.5639,813.0792,,,,stimuli/collisions/calibration/stim16.mp4,,,,,,,,,,,,,,,,,,,,,,,,,,,,,,,,,,,,,,,,,,,,,,,,,,,,,,,,811.5632,811.5637,813.0817,816.7122,816.7208,817.1962,1,[817.202900000006],[817.202900000006],0,[],[],FALSE,FALSE,TRUE,817.1963,819.1458,"[""space""]",[0.9177000000179305],[null],18,0,18,0,1
,,,,,678408b0ce4bc7f5bd48469d,2026-02-02_13h49.56.429,causal,2025.1.1,Win32,59.88023952,,,,,,,,,,,,,,,,,,,,,,,,,,,,,,,,819.1482,820.1291,,,,820.1318,821.6451,,,,stimuli/collisions/calibration/stim4.mp4,,,,,,,,,,,,,,,,,,,,,,,,,,,,,,,,,,,,,,,,,,,,,,,,,,,,,,,,820.1311,820.1316,821.6459,824.4129,824.4218,824.8965,0,[],[],1,[824.903],[824.903],TRUE,TRUE,TRUE,824.8965,827.129,"[""space""]",[1.2030999999940377],[null],19,0,19,0,1
