intro.started,intro.stopped,button_6.numClicks,button_6.timesOn,button_6.timesOff,participant,date,expName,psychopyVersion,OS,frameRate,timing_info.started,timing_info.stopped,button_7.numClicks,button_7.timesOn,button_7.timesOff,hand_positions.started,hand_positions.stopped,space_bar.keys,space_bar.rt,space_bar.duration,train_keys.started,train_keys.stopped,key_resp.keys,key_resp.rt,key_resp.duration,score.started,score.stopped,training.thisRepN,training.thisTrialN,training.thisN,training.thisIndex,training.ran,training_rounds,test_instruct.started,test_instruct.stopped,instruct_cont.started,instruct_cont.stopped,point_instruct.started,point_instruct.stopped,accident_instruct.started,accident_instruct.stopped,advance.started,advance.stopped,flip_video.started,flip_video.stopped,trial_type,buffer.started,buffer.stopped,collision.started,collision.stopped,selection,stimuli_path,select_resp.keys,select_resp.rt,select_resp.duration,resp_trial,responsibility.started,responsibility.stopped,conf_2.response,button.numClicks,button.timesOn,button.timesOff,conf_one,conf_two,conf_three,conf_3.response,conf_1.response,forfeit.started,forfeit.stopped,forfeit_button.numClicks,forfeit_button.timesOn,forfeit_button.timesOff,keep_button.numClicks,keep_button.timesOn,keep_button.timesOff,accuracy.started,accuracy.stopped,rt_diff,acc_points,keep_round,practice_round,begin_review.started,begin_review.stopped,space_bar_6.keys,space_bar_6.rt,space_bar_6.duration,review_keys.started,review_keys.stopped,key_resp_2.keys,key_resp_2.rt,key_resp_2.duration,review_trials,baseline_rts,review.thisRepN,review.thisTrialN,review.thisN,review.thisIndex,review.ran,trials.thisRepN,trials.thisTrialN,trials.thisN,trials.thisIndex,trials.ran,transition.started,transition.stopped,calibrate_instruct.started,calibrate_instruct.stopped,flip_calibration.started,flip_calibration.stopped,calibrate.started,calibrate.stopped,prediction.started,prediction.stopped,miss.numClicks,miss.timesOn,miss.timesOff,hit.numClicks,hit.timesOn,hit.timesOff,calibration_pred,calibration_actual,calibration_score,cal_feedback.started,cal_feedback.stopped,space_bar_12.keys,space_bar_12.rt,space_bar_12.duration,calibration.thisRepN,calibration.thisTrialN,calibration.thisN,calibration.thisIndex,calibration.ran
0.0006,8.7441,1,[3.74959999999777],[3.74959999999777],67edb211a7c1d23c1535d6b2,2026-02-02_15h43.10.903,causal,2025.1.1,Win32,60.24096386,,,,,,,,,,,,,,,,,,,,,,,,,,,,,,,,,,,,,,,,,,,,,,,,,,,,,,,,,,,,,,,,,,,,,,,,,,,,,,,,,,,,,,,,,,,,,,,,,,,,,,,,,,,,,,,,,,,,,,,,,,
,,,,,67edb211a7c1d23c1535d6b2,2026-02-02_15h43.10.903,causal,2025.1.1,Win32,60.24096386,8.7446,15.8312,1,[2.0881999999992615],[2.0881999999992615],,,,,,,,,,,,,,,,,,,,,,,,,,,,,,,,,,,,,,,,,,,,,,,,,,,,,,,,,,,,,,,,,,,,,,,,,,,,,,,,,,,,,,,,,,,,,,,,,,,,,,,,,,,,,,,,,,,,,
,,,,,67edb211a7c1d23c1535d6b2,2026-02-02_15h43.10.903,causal,2025.1.1,Win32,60.24096386,,,,,,15.8314,43.8383,"[""space"",""space""]","[9.399000000000001,24.92750000000001]","[null,null]",,,,,,,,,,,,,,,,,,,,,,,,,,,,,,,,,,,,,,,,,,,,,,,,,,,,,,,,,,,,,,,,,,,,,,,,,,,,,,,,,,,,,,,,,,,,,,,,,,,,,,,,,,,,,,,,
,,,,,67edb211a7c1d23c1535d6b2,2026-02-02_15h43.10.903,causal,2025.1.1,Win32,60.24096386,,,,,,,,,,,131.1091,132.042,space,0.5485,,132.0424,135.1413,0,0,0,0,1,,,,,,,,,,,,,,,,,,,,,,,,,,,,,,,,,,,,,,,,,,,,,,,,,,,,,,,,,,,,,,,,,,,,,,,,,,,,,,,,,,,,,,,,,,,,,,,,,,,,
,,,,,67edb211a7c1d23c1535d6b2,2026-02-02_15h43.10.903,causal,2025.1.1,Win32,60.24096386,,,,,,,,,,,206.5144,207.63,k,0.767,,207.6301,210.129,1,0,1,0,1,,,,,,,,,,,,,,,,,,,,,,,,,,,,,,,,,,,,,,,,,,,,,,,,,,,,,,,,,,,,,,,,,,,,,,,,,,,,,,,,,,,,,,,,,,,,,,,,,,,,
,,,,,67edb211a7c1d23c1535d6b2,2026-02-02_15h43.10.903,causal,2025.1.1,Win32,60.24096386,,,,,,,,,,,277.1533,278.7194,f,1.2156,,278.7194,288.4006,2,0,2,0,1,3,,,,,,,,,,,,,,,,,,,,,,,,,,,,,,,,,,,,,,,,,,,,,,,,,,,,,,,,,,,,,,,,,,,,,,,,,,,,,,,,,,,,,,,,,,,,,,,,,,,
,,,,,67edb211a7c1d23c1535d6b2,2026-02-02_15h43.10.903,causal,2025.1.1,Win32,60.24096386,,,,,,,,,,,,,,,,,,,,,,,,288.4015,294.8498,,,,,,,,,,,,,,,,,,,,,,,,,,,,,,,,,,,,,,,,,,,,,,,,,,,,,,,,,,,,,,,,,,,,,,,,,,,,,,,,,,,,,,,,,,,,,,,,,
,,,,,67edb211a7c1d23c1535d6b2,2026-02-02_15h43.10.903,causal,2025.1.1,Win32,60.24096386,,,,,,,,,,,,,,,,,,,,,,,,,,294.85,304.7317,,,,,,,,,,,,,,,,,,,,,,,,,,,,,,,,,,,,,,,,,,,,,,,,,,,,,,,,,,,,,,,,,,,,,,,,,,,,,,,,,,,,,,,,,,,,,,,
,,,,,67edb211a7c1d23c1535d6b2,2026-02-02_15h43.10.903,causal,2025.1.1,Win32,60.24096386,,,,,,,,,,,,,,,,,,,,,,,,,,,,304.732,317.1132,,,,,,,,,,,,,,,,,,,,,,,,,,,,,,,,,,,,,,,,,,,,,,,,,,,,,,,,,,,,,,,,,,,,,,,,,,,,,,,,,,,,,,,,,,,,,
,,,,,67edb211a7c1d23c1535d6b2,2026-02-02_15h43.10.903,causal,2025.1.1,Win32,60.24096386,,,,,,,,,,,,,,,,,,,,,,,,,,,,,,317.1135,322.879,,,,,,,,,,,,,,,,,,,,,,,,,,,,,,,,,,,,,,,,,,,,,,,,,,,,,,,,,,,,,,,,,,,,,,,,,,,,,,,,,,,,,,,,,,,
,,,,,67edb211a7c1d23c1535d6b2,2026-02-02_15h43.10.903,causal,2025.1.1,Win32,60.24096386,,,,,,,,,,,,,,,,,,,,,,,,,,,,,,,,322.8809,324.2453,324.2457,324.246,train,387.2862,388.3019,325.7632,328.6614,blue,stimuli/collisions/training/stim2.mp4,f,2.534,,TRUE,328.663,353.1055,0,1,[2.163499999999999],[2.163499999999999],red,green,blue,0,0,353.1057,357.5572,1,[357.586],[357.586],0,[],[],357.5578,361.8895,1.466,-5,FALSE,TRUE,361.8896,364.4561,"[""space""]",[0.5284999999998945],[null],388.3021,389.3522,k,0.6989,,9,"[2.63,0.7,1.68,1.35,0.85,0.55,1.25,0.73,0.68,0.7]",9,0,9,0,1,,,,,,,,,,,,,,,,,,,,,,,,,,,,,,,,,,
,,,,,67edb211a7c1d23c1535d6b2,2026-02-02_15h43.10.903,causal,2025.1.1,Win32,60.24096386,,,,,,,,,,,,,,,,,,,,,,,,,,,,,,,,,,,,,,,,,,,,,,,,,,,,,,,,,,,,,,,,,,,,,,,,,,,,,,,,,,,,,,,,,0,0,0,0,1,,,,,,,,,,,,,,,,,,,,,,,,,,,,,
,,,,,67edb211a7c1d23c1535d6b2,2026-02-02_15h43.10.903,causal,2025.1.1,Win32,60.24096386,,,,,,,,,,,,,,,,,,,,,,,,,,,,,,,,389.353,390.4683,390.4684,390.4685,train,415.2995,415.2997,391.9852,393.9451,red,stimuli/collisions/training/stim3.mp4,j,1.6096,,TRUE,393.9478,406.0669,0,1,[1.7829999999999018],[1.7829999999999018],red,green,blue,0,0,406.0685,407.9292,1,[407.95819999999924],[407.95819999999924],0,[],[],407.9293,415.2979,1.6604,-10,FALSE,FALSE,415.298,415.2982,,,,415.2997,415.3009,,,,,,0,0,0,0,1,,,,,,,,,,,,,,,,,,,,,,,,,,,,,,,,,,
,,,,,67edb211a7c1d23c1535d6b2,2026-02-02_15h43.10.903,causal,2025.1.1,Win32,60.24096386,,,,,,,,,,,,,,,,,,,,,,,,,,,,,,,,,,,,,,,,,,,,,,,,,,,,,,,,,,,,,,,,,,,,,,,,,,,,,,,,,,,,,,,,,1,0,1,0,1,,,,,,,,,,,,,,,,,,,,,,,,,,,,,
,,,,,67edb211a7c1d23c1535d6b2,2026-02-02_15h43.10.903,causal,2025.1.1,Win32,60.24096386,,,,,,,,,,,,,,,,,,,,,,,,,,,,,,,,415.3013,420.6137,420.6138,420.6139,train,460.9583,461.9741,422.1429,423.7798,miss,stimuli/collisions/training/stim1.mp4,space,1.2817,,TRUE,423.7829,423.7914,,0,[],[],red,green,blue,,,423.7929,430.1421,0,[],[],1,[430.17070000000285],[430.17070000000285],430.1424,436.3279,2.8583,-50,TRUE,TRUE,436.328,439.1441,"[""space""]",[0.7836999999992713],[null],461.9743,463.0575,j,0.7314,,9,"[2.7,0.58,0.68,0.88,0.7,0.77,1.42,0.83,0.88,0.73]",9,0,9,0,1,,,,,,,,,,,,,,,,,,,,,,,,,,,,,,,,,,
,,,,,67edb211a7c1d23c1535d6b2,2026-02-02_15h43.10.903,causal,2025.1.1,Win32,60.24096386,,,,,,,,,,,,,,,,,,,,,,,,,,,,,,,,,,,,,,,,,,,,,,,,,,,,,,,,,,,,,,,,,,,,,,,,,,,,,,,,,,,,,,,,,2,0,2,0,1,,,,,,,,,,,,,,,,,,,,,,,,,,,,,
,,,,,67edb211a7c1d23c1535d6b2,2026-02-02_15h43.10.903,causal,2025.1.1,Win32,60.24096386,,,,,,,,,,,,,,,,,,,,,,,,,,,,,,,,463.0578,467.6399,467.6401,467.6402,test,502.6028,502.603,469.1569,471.1725,green,stimuli/collisions/hit/stim13.mp4,k,1.6615,,TRUE,471.1749,490.0843,0,1,[10.464800000000878],[10.464800000000878],red,green,blue,0,0,490.0861,492.8526,0,[],[],1,[492.88090000000216],[492.88090000000216],492.8531,502.6013,2.1085,-15,TRUE,FALSE,502.6014,502.6016,,,,502.603,502.6036,,,,,,0,0,0,0,1,,,,,,,,,,,,,,,,,,,,,,,,,,,,,,,,,,
,,,,,67edb211a7c1d23c1535d6b2,2026-02-02_15h43.10.903,causal,2025.1.1,Win32,60.24096386,,,,,,,,,,,,,,,,,,,,,,,,,,,,,,,,,,,,,,,,,,,,,,,,,,,,,,,,,,,,,,,,,,,,,,,,,,,,,,,,,,,,,,,,,3,0,3,0,1,,,,,,,,,,,,,,,,,,,,,,,,,,,,,
,,,,,67edb211a7c1d23c1535d6b2,2026-02-02_15h43.10.903,causal,2025.1.1,Win32,60.24096386,,,,,,,,,,,,,,,,,,,,,,,,,,,,,,,,502.6041,508.4169,508.417,508.4172,test,586.1203,587.1213,509.9342,515.9334,timeout,stimuli/collisions/hit/stim5.mp4,space,5.8992,,TRUE,515.9351,515.9413,,0,[],[],red,green,blue,,,515.9429,515.9434,0,[],[],0,[],[],515.9437,516.1989,-2.0587,-65,TRUE,TRUE,516.199,519.4319,"[""space""]",[1.2003000000008797],[null],587.1215,589.0676,f,1.5673,,24,"[0.84,1.13,0.87,1.2,0.6,0.63,1.33,0.87,2.53,1.1,0.98,1.21,1.48,0.78,1.36,0.46,1.57]",24,0,24,0,1,,,,,,,,,,,,,,,,,,,,,,,,,,,,,,,,,,
,,,,,67edb211a7c1d23c1535d6b2,2026-02-02_15h43.10.903,causal,2025.1.1,Win32,60.24096386,,,,,,,,,,,,,,,,,,,,,,,,,,,,,,,,,,,,,,,,,,,,,,,,,,,,,,,,,,,,,,,,,,,,,,,,,,,,,,,,,,,,,,,,,4,0,4,0,1,,,,,,,,,,,,,,,,,,,,,,,,,,,,,
,,,,,67edb211a7c1d23c1535d6b2,2026-02-02_15h43.10.903,causal,2025.1.1,Win32,60.24096386,,,,,,,,,,,,,,,,,,,,,,,,,,,,,,,,589.0679,591.6875,591.6876,591.6876,test,617.0349,617.0351,593.2004,595.6831,blue,stimuli/collisions/hit/stim9.mp4,f,2.1151,,TRUE,595.6854,609.952,0,1,[5.782399999998461],[5.782399999998461],red,green,blue,0,100,609.9536,612.933,1,[612.9619000000022],[612.9619000000022],0,[],[],612.9332,617.0336,0.8549,-70,FALSE,FALSE,617.0336,617.0337,,,,617.0352,617.0361,,,,,,0,0,0,0,1,,,,,,,,,,,,,,,,,,,,,,,,,,,,,,,,,,
,,,,,67edb211a7c1d23c1535d6b2,2026-02-02_15h43.10.903,causal,2025.1.1,Win32,60.24096386,,,,,,,,,,,,,,,,,,,,,,,,,,,,,,,,,,,,,,,,,,,,,,,,,,,,,,,,,,,,,,,,,,,,,,,,,,,,,,,,,,,,,,,,,5,0,5,0,1,,,,,,,,,,,,,,,,,,,,,,,,,,,,,
,,,,,67edb211a7c1d23c1535d6b2,2026-02-02_15h43.10.903,causal,2025.1.1,Win32,60.24096386,,,,,,,,,,,,,,,,,,,,,,,,,,,,,,,,617.0363,618.9331,618.9332,618.9333,test,640.1147,640.1149,620.4498,622.5639,red,stimuli/collisions/hit/stim1.mp4,j,1.761,,TRUE,622.5663,633.7983,0,1,[2.7495999999978267],[2.7495999999978267],red,green,blue,0,100,633.8001,636.294,0,[],[],1,[636.3224000000023],[636.3224000000023],636.2944,640.1134,1.609,-40,TRUE,FALSE,640.1134,640.1137,,,,640.1149,640.1156,,,,,,0,0,0,0,1,,,,,,,,,,,,,,,,,,,,,,,,,,,,,,,,,,
,,,,,67edb211a7c1d23c1535d6b2,2026-02-02_15h43.10.903,causal,2025.1.1,Win32,60.24096386,,,,,,,,,,,,,,,,,,,,,,,,,,,,,,,,,,,,,,,,,,,,,,,,,,,,,,,,,,,,,,,,,,,,,,,,,,,,,,,,,,,,,,,,,6,0,6,0,1,,,,,,,,,,,,,,,,,,,,,,,,,,,,,
,,,,,67edb211a7c1d23c1535d6b2,2026-02-02_15h43.10.903,causal,2025.1.1,Win32,60.24096386,,,,,,,,,,,,,,,,,,,,,,,,,,,,,,,,640.1159,643.696,643.6962,643.6963,catch,690.9728,691.9886,645.2131,647.737,green,stimuli/collisions/miss/stim5.mp4,k,2.1604,,TRUE,647.7394,656.4449,0,1,[2.4662999999970907],[2.4662999999970907],red,green,blue,0,0,656.4465,660.5737,0,[],[],1,[660.6020000000001],[660.6020000000001],660.574,667.259,1.8396,-80,TRUE,TRUE,667.259,671.0253,"[""space""]",[1.7341000000014901],[null],691.9887,694.1555,k,1.8155,,9,"[1.48,0.72,0.75,0.63,0.9,0.7,1.07,0.54,0.69,1.82]",9,0,9,0,1,,,,,,,,,,,,,,,,,,,,,,,,,,,,,,,,,,
,,,,,67edb211a7c1d23c1535d6b2,2026-02-02_15h43.10.903,causal,2025.1.1,Win32,60.24096386,,,,,,,,,,,,,,,,,,,,,,,,,,,,,,,,,,,,,,,,,,,,,,,,,,,,,,,,,,,,,,,,,,,,,,,,,,,,,,,,,,,,,,,,,7,0,7,0,1,,,,,,,,,,,,,,,,,,,,,,,,,,,,,
,,,,,67edb211a7c1d23c1535d6b2,2026-02-02_15h43.10.903,causal,2025.1.1,Win32,60.24096386,,,,,,,,,,,,,,,,,,,,,,,,,,,,,,,,694.1559,697.3377,697.3379,697.3379,test,746.6642,747.6798,698.8549,701.2808,red,stimuli/collisions/hit/stim18.mp4,j,2.058,,TRUE,701.2829,710.6195,0,1,[0.9331000000013319],[0.9331000000013319],red,green,blue,100,0,710.6212,711.3526,1,[711.3816000000014],[711.3816000000014],0,[],[],711.3529,716.7349,1.082,-85,FALSE,TRUE,716.7349,719.5677,"[""space""]",[0.8006999999993241],[null],747.6799,748.9138,space,0.8464,,9,"[2.07,0.97,1.18,1.05,1.22,1.3,1.45,2.05,0.85]",9,0,9,0,1,,,,,,,,,,,,,,,,,,,,,,,,,,,,,,,,,,
,,,,,67edb211a7c1d23c1535d6b2,2026-02-02_15h43.10.903,causal,2025.1.1,Win32,60.24096386,,,,,,,,,,,,,,,,,,,,,,,,,,,,,,,,,,,,,,,,,,,,,,,,,,,,,,,,,,,,,,,,,,,,,,,,,,,,,,,,,,,,,,,,,8,0,8,0,1,,,,,,,,,,,,,,,,,,,,,,,,,,,,,
,,,,,67edb211a7c1d23c1535d6b2,2026-02-02_15h43.10.903,causal,2025.1.1,Win32,60.24096386,,,,,,,,,,,,,,,,,,,,,,,,,,,,,,,,748.9143,752.5792,752.5794,752.5795,test,788.6579,789.6736,754.0964,756.8584,miss,stimuli/collisions/hit/stim10.mp4,space,2.4127,,TRUE,756.8606,756.8676,,0,[],[],red,green,blue,,,756.8692,760.3613,1,[760.3906000000014],[760.3906000000014],0,[],[],760.3617,764.1442,1.8273,-90,FALSE,TRUE,764.1443,767.0602,"[""space""]",[0.8853999999985263],[null],789.6737,791.6402,j,1.6123,,9,"[0.67,1.55,0.63,1.78,1,1.27,0.61,1.1,0.62,1.61]",9,0,9,0,1,,,,,,,,,,,,,,,,,,,,,,,,,,,,,,,,,,
,,,,,67edb211a7c1d23c1535d6b2,2026-02-02_15h43.10.903,causal,2025.1.1,Win32,60.24096386,,,,,,,,,,,,,,,,,,,,,,,,,,,,,,,,,,,,,,,,,,,,,,,,,,,,,,,,,,,,,,,,,,,,,,,,,,,,,,,,,,,,,,,,,9,0,9,0,1,,,,,,,,,,,,,,,,,,,,,,,,,,,,,
,,,,,67edb211a7c1d23c1535d6b2,2026-02-02_15h43.10.903,causal,2025.1.1,Win32,60.24096386,,,,,,,,,,,,,,,,,,,,,,,,,,,,,,,,791.6406,792.7895,792.7896,792.7897,catch,835.9174,836.9331,794.3068,796.4526,blue,stimuli/collisions/miss/stim4.mp4,f,1.7795,,TRUE,796.4547,804.9231,0,1,[0.8178999999984171],[0.8178999999984171],red,green,blue,44,0,804.9247,805.538,0,[],[],1,[805.5662000000029],[805.5662000000029],805.5382,809.104,2.2205,-130,TRUE,TRUE,809.104,811.2536,"[""space""]",[0.11780000000067048],[null],836.9332,839.2168,f,0.7304,,9,"[2.25,1.16,1.18,1.66,0.58,0.75,1,0.7,3.03]",9,0,9,0,1,,,,,,,,,,,,,,,,,,,,,,,,,,,,,,,,,,
,,,,,67edb211a7c1d23c1535d6b2,2026-02-02_15h43.10.903,causal,2025.1.1,Win32,60.24096386,,,,,,,,,,,,,,,,,,,,,,,,,,,,,,,,,,,,,,,,,,,,,,,,,,,,,,,,,,,,,,,,,,,,,,,,,,,,,,,,,,,,,,,,,10,0,10,0,1,,,,,,,,,,,,,,,,,,,,,,,,,,,,,
,,,,,67edb211a7c1d23c1535d6b2,2026-02-02_15h43.10.903,causal,2025.1.1,Win32,60.24096386,,,,,,,,,,,,,,,,,,,,,,,,,,,,,,,,839.2171,840.7823,840.7825,840.7825,test,859.4306,859.4308,842.2991,845.6316,green,stimuli/collisions/hit/stim3.mp4,k,3.2126,,TRUE,845.6339,853.9695,100,1,[0.8214000000023134],[0.8214000000023134],red,green,blue,0,0,853.9711,855.0778,0,[],[],1,[855.1062000000029],[855.1062000000029],855.0781,859.4293,1.5602,-100,TRUE,FALSE,859.4295,859.4296,,,,859.4309,859.4315,,,,,,0,0,0,0,1,,,,,,,,,,,,,,,,,,,,,,,,,,,,,,,,,,
,,,,,67edb211a7c1d23c1535d6b2,2026-02-02_15h43.10.903,causal,2025.1.1,Win32,60.24096386,,,,,,,,,,,,,,,,,,,,,,,,,,,,,,,,,,,,,,,,,,,,,,,,,,,,,,,,,,,,,,,,,,,,,,,,,,,,,,,,,,,,,,,,,11,0,11,0,1,,,,,,,,,,,,,,,,,,,,,,,,,,,,,
,,,,,67edb211a7c1d23c1535d6b2,2026-02-02_15h43.10.903,causal,2025.1.1,Win32,60.24096386,,,,,,,,,,,,,,,,,,,,,,,,,,,,,,,,859.4317,861.6962,861.6963,861.6963,catch,871.3457,871.3458,863.2129,865.4119,miss,stimuli/collisions/miss/stim6.mp4,space,1.8453,,TRUE,865.415,865.4234,,0,[],[],red,green,blue,,,865.425,867.3947,0,[],[],1,[867.4233000000006],[867.4233000000006],867.3952,871.3445,2.1547,-65,TRUE,FALSE,871.3446,871.3447,,,,871.3459,871.3465,,,,,,0,0,0,0,1,,,,,,,,,,,,,,,,,,,,,,,,,,,,,,,,,,
,,,,,67edb211a7c1d23c1535d6b2,2026-02-02_15h43.10.903,causal,2025.1.1,Win32,60.24096386,,,,,,,,,,,,,,,,,,,,,,,,,,,,,,,,,,,,,,,,,,,,,,,,,,,,,,,,,,,,,,,,,,,,,,,,,,,,,,,,,,,,,,,,,12,0,12,0,1,,,,,,,,,,,,,,,,,,,,,,,,,,,,,
,,,,,67edb211a7c1d23c1535d6b2,2026-02-02_15h43.10.903,causal,2025.1.1,Win32,60.24096386,,,,,,,,,,,,,,,,,,,,,,,,,,,,,,,,871.3467,873.1106,873.1108,873.1108,test,888.8095,888.8097,874.6278,877.0219,green,stimuli/collisions/hit/stim7.mp4,k,2.0431,,TRUE,877.0241,882.9771,100,1,[0.5832999999970525],[0.5832999999970525],red,green,blue,0,0,882.9788,884.0592,0,[],[],1,[884.0874999999999],[884.0874999999999],884.0595,888.8083,1.2269,-35,TRUE,FALSE,888.8084,888.8085,,,,888.8097,888.8105,,,,,,0,0,0,0,1,,,,,,,,,,,,,,,,,,,,,,,,,,,,,,,,,,
,,,,,67edb211a7c1d23c1535d6b2,2026-02-02_15h43.10.903,causal,2025.1.1,Win32,60.24096386,,,,,,,,,,,,,,,,,,,,,,,,,,,,,,,,,,,,,,,,,,,,,,,,,,,,,,,,,,,,,,,,,,,,,,,,,,,,,,,,,,,,,,,,,13,0,13,0,1,,,,,,,,,,,,,,,,,,,,,,,,,,,,,
,,,,,67edb211a7c1d23c1535d6b2,2026-02-02_15h43.10.903,causal,2025.1.1,Win32,60.24096386,,,,,,,,,,,,,,,,,,,,,,,,,,,,,,,,888.8108,892.8744,892.8745,892.8745,test,908.6066,908.6068,894.3914,897.3238,red,stimuli/collisions/hit/stim2.mp4,j,2.5794,,TRUE,897.3262,904.2566,0,1,[0.9164999999998145],[0.9164999999998145],red,green,blue,100,0,904.2583,905.3031,1,[905.3321000000013],[905.3321000000013],0,[],[],905.3033,908.6054,1.3306,-40,FALSE,FALSE,908.6055,908.6057,,,,908.6068,908.6078,,,,,,0,0,0,0,1,,,,,,,,,,,,,,,,,,,,,,,,,,,,,,,,,,
,,,,,67edb211a7c1d23c1535d6b2,2026-02-02_15h43.10.903,causal,2025.1.1,Win32,60.24096386,,,,,,,,,,,,,,,,,,,,,,,,,,,,,,,,,,,,,,,,,,,,,,,,,,,,,,,,,,,,,,,,,,,,,,,,,,,,,,,,,,,,,,,,,14,0,14,0,1,,,,,,,,,,,,,,,,,,,,,,,,,,,,,
,,,,,67edb211a7c1d23c1535d6b2,2026-02-02_15h43.10.903,causal,2025.1.1,Win32,60.24096386,,,,,,,,,,,,,,,,,,,,,,,,,,,,,,,,908.608,909.5385,909.5386,909.5387,test,946.0297,947.0329,911.0449,913.901,miss,stimuli/collisions/hit/stim15.mp4,space,2.4835,,TRUE,913.9032,913.9102,,0,[],[],red,green,blue,,,913.9115,917.3039,1,[917.3331999999992],[917.3331999999992],0,[],[],917.3042,921.1034,2.1565,-45,FALSE,TRUE,921.1035,923.9695,"[""space""]",[0.8351000000013755],[null],947.0329,948.1623,j,0.7677,,9,"[0.69,1.53,0.7,0.7,1.91,1.7,1.1,0.75,0.58,0.77]",9,0,9,0,1,,,,,,,,,,,,,,,,,,,,,,,,,,,,,,,,,,
,,,,,67edb211a7c1d23c1535d6b2,2026-02-02_15h43.10.903,causal,2025.1.1,Win32,60.24096386,,,,,,,,,,,,,,,,,,,,,,,,,,,,,,,,,,,,,,,,,,,,,,,,,,,,,,,,,,,,,,,,,,,,,,,,,,,,,,,,,,,,,,,,,15,0,15,0,1,,,,,,,,,,,,,,,,,,,,,,,,,,,,,
,,,,,67edb211a7c1d23c1535d6b2,2026-02-02_15h43.10.903,causal,2025.1.1,Win32,60.24096386,,,,,,,,,,,,,,,,,,,,,,,,,,,,,,,,948.1626,950.0324,950.0325,950.0326,test,987.5896,988.6045,951.5392,954.5374,blue,stimuli/collisions/hit/stim4.mp4,f,2.6478,,TRUE,954.5403,960.7143,0,1,[0.7996000000014192],[0.7996000000014192],red,green,blue,100,0,960.7159,961.8811,0,[],[],1,[961.9093000000007],[961.9093000000007],961.8814,964.5799,1.3622,-15,TRUE,TRUE,964.5799,967.1964,"[""space""]",[0.5835999999976593],[null],988.6046,989.3725,space,0.3675,,9,"[0.67,1.6,0.77,0.92,1.8,0.42,0.77,0.58,0.43,0.37]",9,0,9,0,1,,,,,,,,,,,,,,,,,,,,,,,,,,,,,,,,,,
,,,,,67edb211a7c1d23c1535d6b2,2026-02-02_15h43.10.903,causal,2025.1.1,Win32,60.24096386,,,,,,,,,,,,,,,,,,,,,,,,,,,,,,,,,,,,,,,,,,,,,,,,,,,,,,,,,,,,,,,,,,,,,,,,,,,,,,,,,,,,,,,,,16,0,16,0,1,,,,,,,,,,,,,,,,,,,,,,,,,,,,,
,,,,,67edb211a7c1d23c1535d6b2,2026-02-02_15h43.10.903,causal,2025.1.1,Win32,60.24096386,,,,,,,,,,,,,,,,,,,,,,,,,,,,,,,,989.3727,990.6927,990.6928,990.6929,catch,1002.0921,1002.0924,992.1984,995.6085,miss,stimuli/collisions/miss/stim1.mp4,space,3.0523,,TRUE,995.6107,995.6172,,0,[],[],red,green,blue,,,995.6186,998.6246,0,[],[],1,[998.6533000000006],[998.6533000000006],998.6248,1002.091,0.9477,10,TRUE,FALSE,1002.0911,1002.0912,,,,1002.0924,1002.0932,,,,,,0,0,0,0,1,,,,,,,,,,,,,,,,,,,,,,,,,,,,,,,,,,
,,,,,67edb211a7c1d23c1535d6b2,2026-02-02_15h43.10.903,causal,2025.1.1,Win32,60.24096386,,,,,,,,,,,,,,,,,,,,,,,,,,,,,,,,,,,,,,,,,,,,,,,,,,,,,,,,,,,,,,,,,,,,,,,,,,,,,,,,,,,,,,,,,17,0,17,0,1,,,,,,,,,,,,,,,,,,,,,,,,,,,,,
,,,,,67edb211a7c1d23c1535d6b2,2026-02-02_15h43.10.903,causal,2025.1.1,Win32,60.24096386,,,,,,,,,,,,,,,,,,,,,,,,,,,,,,,,1002.0934,1003.4074,1003.4075,1003.4075,test,1020.4893,1020.4894,1004.9244,1008.0128,green,stimuli/collisions/hit/stim12.mp4,k,2.7416,,TRUE,1008.0147,1014.3564,100,1,[0.5526999999992768],[0.5526999999992768],red,green,blue,0,0,1014.3581,1015.1704,0,[],[],1,[1015.1988000000006],[1015.1988000000006],1015.1706,1020.4884,1.3684,40,TRUE,FALSE,1020.4884,1020.4885,,,,1020.4895,1020.49,,,,,,0,0,0,0,1,,,,,,,,,,,,,,,,,,,,,,,,,,,,,,,,,,
,,,,,67edb211a7c1d23c1535d6b2,2026-02-02_15h43.10.903,causal,2025.1.1,Win32,60.24096386,,,,,,,,,,,,,,,,,,,,,,,,,,,,,,,,,,,,,,,,,,,,,,,,,,,,,,,,,,,,,,,,,,,,,,,,,,,,,,,,,,,,,,,,,18,0,18,0,1,,,,,,,,,,,,,,,,,,,,,,,,,,,,,
,,,,,67edb211a7c1d23c1535d6b2,2026-02-02_15h43.10.903,causal,2025.1.1,Win32,60.24096386,,,,,,,,,,,,,,,,,,,,,,,,,,,,,,,,1020.4902,1021.6546,1021.6546,1021.6547,test,1041.9193,1041.9194,1023.1716,1026.7203,blue,stimuli/collisions/hit/stim17.mp4,f,3.1957,,TRUE,1026.7226,1037.1031,0,1,[3.4996000000014647],[3.4996000000014647],red,green,blue,0,100,1037.1049,1038.4174,1,[1038.4465],[1038.4465],0,[],[],1038.4176,1041.9183,1.1143,35,FALSE,FALSE,1041.9183,1041.9184,,,,1041.9195,1041.92,,,,,,0,0,0,0,1,,,,,,,,,,,,,,,,,,,,,,,,,,,,,,,,,,
,,,,,67edb211a7c1d23c1535d6b2,2026-02-02_15h43.10.903,causal,2025.1.1,Win32,60.24096386,,,,,,,,,,,,,,,,,,,,,,,,,,,,,,,,,,,,,,,,,,,,,,,,,,,,,,,,,,,,,,,,,,,,,,,,,,,,,,,,,,,,,,,,,19,0,19,0,1,,,,,,,,,,,,,,,,,,,,,,,,,,,,,
,,,,,67edb211a7c1d23c1535d6b2,2026-02-02_15h43.10.903,causal,2025.1.1,Win32,60.24096386,,,,,,,,,,,,,,,,,,,,,,,,,,,,,,,,1041.9203,1044.6011,1044.6012,1044.6012,test,1056.9001,1056.9003,1046.1082,1048.7506,red,stimuli/collisions/hit/stim14.mp4,j,2.285,,TRUE,1048.7525,1053.7139,0,1,[0.8814000000022588],[0.8814000000022588],red,green,blue,0,100,1053.7154,1054.7808,0,[],[],1,[1054.8091000000013],[1054.8091000000013],1054.7812,1056.8991,0.655,60,TRUE,FALSE,1056.8992,1056.8993,,,,1056.9004,1056.9012,,,,,,0,0,0,0,1,,,,,,,,,,,,,,,,,,,,,,,,,,,,,,,,,,
,,,,,67edb211a7c1d23c1535d6b2,2026-02-02_15h43.10.903,causal,2025.1.1,Win32,60.24096386,,,,,,,,,,,,,,,,,,,,,,,,,,,,,,,,,,,,,,,,,,,,,,,,,,,,,,,,,,,,,,,,,,,,,,,,,,,,,,,,,,,,,,,,,20,0,20,0,1,,,,,,,,,,,,,,,,,,,,,,,,,,,,,
,,,,,67edb211a7c1d23c1535d6b2,2026-02-02_15h43.10.903,causal,2025.1.1,Win32,60.24096386,,,,,,,,,,,,,,,,,,,,,,,,,,,,,,,,1056.9015,1059.982,1059.9821,1059.9822,test,1072.648,1072.6482,1061.4947,1063.7981,blue,stimuli/collisions/hit/stim16.mp4,f,1.9517,,TRUE,1063.8004,1068.4484,0,1,[0.6856000000016138],[0.6856000000016138],red,green,blue,100,0,1068.4501,1069.2457,0,[],[],1,[1069.274],[1069.274],1069.246,1072.6469,0.8583,85,TRUE,FALSE,1072.6469,1072.647,,,,1072.6482,1072.6489,,,,,,0,0,0,0,1,,,,,,,,,,,,,,,,,,,,,,,,,,,,,,,,,,
,,,,,67edb211a7c1d23c1535d6b2,2026-02-02_15h43.10.903,causal,2025.1.1,Win32,60.24096386,,,,,,,,,,,,,,,,,,,,,,,,,,,,,,,,,,,,,,,,,,,,,,,,,,,,,,,,,,,,,,,,,,,,,,,,,,,,,,,,,,,,,,,,,21,0,21,0,1,,,,,,,,,,,,,,,,,,,,,,,,,,,,,
,,,,,67edb211a7c1d23c1535d6b2,2026-02-02_15h43.10.903,causal,2025.1.1,Win32,60.24096386,,,,,,,,,,,,,,,,,,,,,,,,,,,,,,,,1072.6491,1073.3632,1073.3634,1073.3635,test,1089.0954,1089.0955,1074.88,1077.446,red,stimuli/collisions/hit/stim11.mp4,j,2.2149,,TRUE,1077.4481,1084.227,0,1,[0.966699999999264],[0.966699999999264],red,green,blue,0,100,1084.2287,1085.4595,0,[],[],1,[1085.4876000000015],[1085.4876000000015],1085.4597,1089.0943,1.3551,115,TRUE,FALSE,1089.0943,1089.0945,,,,1089.0957,1089.0961,,,,,,0,0,0,0,1,,,,,,,,,,,,,,,,,,,,,,,,,,,,,,,,,,
,,,,,67edb211a7c1d23c1535d6b2,2026-02-02_15h43.10.903,causal,2025.1.1,Win32,60.24096386,,,,,,,,,,,,,,,,,,,,,,,,,,,,,,,,,,,,,,,,,,,,,,,,,,,,,,,,,,,,,,,,,,,,,,,,,,,,,,,,,,,,,,,,,22,0,22,0,1,,,,,,,,,,,,,,,,,,,,,,,,,,,,,
,,,,,67edb211a7c1d23c1535d6b2,2026-02-02_15h43.10.903,causal,2025.1.1,Win32,60.24096386,,,,,,,,,,,,,,,,,,,,,,,,,,,,,,,,1089.0964,1090.9606,1090.9607,1090.9608,test,1107.4593,1107.4595,1092.4776,1095.3743,red,stimuli/collisions/hit/stim8.mp4,j,2.5444,,TRUE,1095.3763,1103.1926,0,1,[1.266100000001643],[1.266100000001643],red,green,blue,100,0,1103.1945,1104.0901,1,[1104.1191000000015],[1104.1191000000015],0,[],[],1104.0903,1107.4582,0.7956,110,FALSE,FALSE,1107.4583,1107.4584,,,,1107.4596,1107.4602,,,,,,0,0,0,0,1,,,,,,,,,,,,,,,,,,,,,,,,,,,,,,,,,,
,,,,,67edb211a7c1d23c1535d6b2,2026-02-02_15h43.10.903,causal,2025.1.1,Win32,60.24096386,,,,,,,,,,,,,,,,,,,,,,,,,,,,,,,,,,,,,,,,,,,,,,,,,,,,,,,,,,,,,,,,,,,,,,,,,,,,,,,,,,,,,,,,,23,0,23,0,1,,,,,,,,,,,,,,,,,,,,,,,,,,,,,
,,,,,67edb211a7c1d23c1535d6b2,2026-02-02_15h43.10.903,causal,2025.1.1,Win32,60.24096386,,,,,,,,,,,,,,,,,,,,,,,,,,,,,,,,1107.4604,1108.4912,1108.4913,1108.4913,test,1142.5697,1143.5858,1110.0083,1112.3239,red,stimuli/collisions/hit/stim6.mp4,j,1.9616,,TRUE,1112.3261,1117.4309,0,1,[0.5566999999991822],[0.5566999999991822],red,green,blue,0,100,1117.4325,1118.7568,0,[],[],1,[1118.785200000003],[1118.785200000003],1118.7571,1121.756,1.2784,140,TRUE,TRUE,1121.756,1124.3027,"[""space""]",[0.5008000000007087],[null],1143.5859,1144.6363,j,0.6982,,9,"[0.88,0.38,0.47,1.18,0.61,0.6,0.52,0.58,0.67,0.7]",9,0,9,0,1,,,,,,,,,,,,,,,,,,,,,,,,,,,,,,,,,,
,,,,,67edb211a7c1d23c1535d6b2,2026-02-02_15h43.10.903,causal,2025.1.1,Win32,60.24096386,,,,,,,,,,,,,,,,,,,,,,,,,,,,,,,,,,,,,,,,,,,,,,,,,,,,,,,,,,,,,,,,,,,,,,,,,,,,,,,,,,,,,,,,,24,0,24,0,1,,,,,,,,,,,,,,,,,,,,,,,,,,,,,
,,,,,67edb211a7c1d23c1535d6b2,2026-02-02_15h43.10.903,causal,2025.1.1,Win32,60.24096386,,,,,,,,,,,,,,,,,,,,,,,,,,,,,,,,1144.6366,1146.1021,1146.1022,1146.1022,catch,1157.5347,1157.5349,1147.6189,1150.1349,miss,stimuli/collisions/miss/stim2.mp4,space,2.1656,,TRUE,1150.1374,1150.1445,,0,[],[],red,green,blue,,,1150.1461,1152.1345,0,[],[],1,[1152.1631000000014],[1152.1631000000014],1152.1349,1157.5338,1.8344,175,TRUE,FALSE,1157.5338,1157.5339,,,,1157.5349,1157.5355,,,,,,0,0,0,0,1,,,,,,,,,,,,,,,,,,,,,,,,,,,,,,,,,,
,,,,,67edb211a7c1d23c1535d6b2,2026-02-02_15h43.10.903,causal,2025.1.1,Win32,60.24096386,,,,,,,,,,,,,,,,,,,,,,,,,,,,,,,,,,,,,,,,,,,,,,,,,,,,,,,,,,,,,,,,,,,,,,,,,,,,,,,,,,,,,,,,,25,0,25,0,1,,,,,,,,,,,,,,,,,,,,,,,,,,,,,
,,,,,67edb211a7c1d23c1535d6b2,2026-02-02_15h43.10.903,causal,2025.1.1,Win32,60.24096386,,,,,,,,,,,,,,,,,,,,,,,,,,,,,,,,1157.5357,1158.25,1158.2501,1158.2502,catch,1166.5835,1166.5837,1159.7672,1162.5117,miss,stimuli/collisions/miss/stim3.mp4,space,2.3788,,TRUE,1162.5139,1162.5198,,0,[],[],red,green,blue,,,1162.5218,1164.3327,0,[],[],1,[1164.361200000003],[1164.361200000003],1164.333,1166.5825,1.6212,205,TRUE,FALSE,1166.5825,1166.5826,,,,1166.5837,1166.5844,,,,,,0,0,0,0,1,,,,,,,,,,,,,,,,,,,,,,,,,,,,,,,,,,
,,,,,67edb211a7c1d23c1535d6b2,2026-02-02_15h43.10.903,causal,2025.1.1,Win32,60.24096386,,,,,,,,,,,,,,,,,,,,,,,,,,,,,,,,,,,,,,,,,,,,,,,,,,,,,,,,,,,,,,,,,,,,,,,,,,,,,,,,,,,,,,,,,26,0,26,0,1,,,,,,,,,,,,,,,,,,,,,,,,,,,,,
,,,,,67edb211a7c1d23c1535d6b2,2026-02-02_15h43.10.903,causal,2025.1.1,Win32,60.24096386,,,,,,,,,,,,,,,,,,,,,,,,,,,,,,,,,,,,,,,,,,,,,,,,,,,,,,,,,,,,,,,,,,,,,,,,,,,,,,,,,,,,,,,,,,,,,,1166.5847,1172.0616,,,,,,,,,,,,,,,,,,,,,,,,,,,
,,,,,67edb211a7c1d23c1535d6b2,2026-02-02_15h43.10.903,causal,2025.1.1,Win32,60.24096386,,,,,,,,,,,,,,,,,,,,,,,,,,,,,,,,,,,,,,,,,,,,,,,,,,,,,,,,,,,,,,,,,,,,,,,,,,,,,,,,,,,,,,,,,,,,,,,,1172.0619,1179.8475,,,,,,,,,,,,,,,,,,,,,,,,,
,,,,,67edb211a7c1d23c1535d6b2,2026-02-02_15h43.10.903,causal,2025.1.1,Win32,60.24096386,,,,,,,,,,,,,,,,,,,,,,,,,,,,,,,,1179.8486,1181.6799,,,,1181.6808,1183.1964,,,,stimuli/collisions/calibration/stim14.mp4,,,,,,,,,,,,,,,,,,,,,,,,,,,,,,,,,,,,,,,,,,,,,,,,,,,,,,,,1181.6806,1181.6808,1183.1974,1186.6462,1186.647,1188.8459,0,[],[],1,[1188.8511999999992],[1188.8511999999992],TRUE,FALSE,FALSE,1188.846,1191.4622,"[""space""]",[1.5801000000014938],[null],0,0,0,0,1
,,,,,67edb211a7c1d23c1535d6b2,2026-02-02_15h43.10.903,causal,2025.1.1,Win32,60.24096386,,,,,,,,,,,,,,,,,,,,,,,,,,,,,,,,1191.4627,1192.3114,,,,1192.3117,1193.8281,,,,stimuli/collisions/calibration/stim13.mp4,,,,,,,,,,,,,,,,,,,,,,,,,,,,,,,,,,,,,,,,,,,,,,,,,,,,,,,,1192.3116,1192.3117,1193.8287,1196.7572,1196.7593,1197.3944,1,[1197.4005999999977],[1197.4005999999977],0,[],[],FALSE,FALSE,TRUE,1197.3946,1199.0607,"[""space""]",[0.6408000000005813],[null],1,0,1,0,1
,,,,,67edb211a7c1d23c1535d6b2,2026-02-02_15h43.10.903,causal,2025.1.1,Win32,60.24096386,,,,,,,,,,,,,,,,,,,,,,,,,,,,,,,,1199.0612,1199.7772,,,,1199.7777,1201.3061,,,,stimuli/collisions/calibration/stim19.mp4,,,,,,,,,,,,,,,,,,,,,,,,,,,,,,,,,,,,,,,,,,,,,,,,,,,,,,,,1199.7776,1199.7777,1201.3065,1204.3601,1204.3628,1205.1932,0,[],[],1,[1205.1986999999992],[1205.1986999999992],TRUE,FALSE,FALSE,1205.1932,1207.5396,"[""space""]",[1.317900000002055],[null],2,0,2,0,1
,,,,,67edb211a7c1d23c1535d6b2,2026-02-02_15h43.10.903,causal,2025.1.1,Win32,60.24096386,,,,,,,,,,,,,,,,,,,,,,,,,,,,,,,,1207.5399,1208.209,,,,1208.2095,1209.7227,,,,stimuli/collisions/calibration/stim18.mp4,,,,,,,,,,,,,,,,,,,,,,,,,,,,,,,,,,,,,,,,,,,,,,,,,,,,,,,,1208.2093,1208.2094,1209.723,1213.1256,1213.1277,1213.6084,1,[1213.6145000000001],[1213.6145000000001],0,[],[],FALSE,FALSE,TRUE,1213.6085,1215.4751,"[""space""]",[0.8411999999991622],[null],3,0,3,0,1
,,,,,67edb211a7c1d23c1535d6b2,2026-02-02_15h43.10.903,causal,2025.1.1,Win32,60.24096386,,,,,,,,,,,,,,,,,,,,,,,,,,,,,,,,1215.4756,1216.1247,,,,1216.1251,1217.641,,,,stimuli/collisions/calibration/stim7.mp4,,,,,,,,,,,,,,,,,,,,,,,,,,,,,,,,,,,,,,,,,,,,,,,,,,,,,,,,1216.1249,1216.1251,1217.6416,1220.3018,1220.3041,1220.7072,0,[],[],1,[1220.7128999999984],[1220.7128999999984],TRUE,TRUE,TRUE,1220.7072,1222.3369,"[""space""]",[0.5839000000021315],[null],4,0,4,0,1
,,,,,67edb211a7c1d23c1535d6b2,2026-02-02_15h43.10.903,causal,2025.1.1,Win32,60.24096386,,,,,,,,,,,,,,,,,,,,,,,,,,,,,,,,1222.3372,1222.9736,,,,1222.974,1224.4792,,,,stimuli/collisions/calibration/stim16.mp4,,,,,,,,,,,,,,,,,,,,,,,,,,,,,,,,,,,,,,,,,,,,,,,,,,,,,,,,1222.9738,1222.974,1224.4798,1228.1065,1228.1096,1228.8395,1,[1228.8455999999978],[1228.8455999999978],0,[],[],FALSE,FALSE,TRUE,1228.8396,1230.4728,"[""space""]",[0.6008999999985463],[null],5,0,5,0,1
,,,,,67edb211a7c1d23c1535d6b2,2026-02-02_15h43.10.903,causal,2025.1.1,Win32,60.24096386,,,,,,,,,,,,,,,,,,,,,,,,,,,,,,,,1230.4732,1231.0726,,,,1231.0729,1232.589,,,,stimuli/collisions/calibration/stim17.mp4,,,,,,,,,,,,,,,,,,,,,,,,,,,,,,,,,,,,,,,,,,,,,,,,,,,,,,,,1231.0727,1231.0729,1232.5895,1235.7882,1235.7905,1236.6547,0,[],[],1,[1236.6603999999984],[1236.6603999999984],TRUE,TRUE,TRUE,1236.6549,1238.7048,"[""space""]",[1.0169999999998254],[null],6,0,6,0,1
,,,,,67edb211a7c1d23c1535d6b2,2026-02-02_15h43.10.903,causal,2025.1.1,Win32,60.24096386,,,,,,,,,,,,,,,,,,,,,,,,,,,,,,,,1238.7052,1239.6379,,,,1239.6382,1241.1546,,,,stimuli/collisions/calibration/stim20.mp4,,,,,,,,,,,,,,,,,,,,,,,,,,,,,,,,,,,,,,,,,,,,,,,,,,,,,,,,1239.6381,1239.6382,1241.155,1243.9207,1243.9235,1244.4036,0,[],[],1,[1244.4093999999984],[1244.4093999999984],TRUE,TRUE,TRUE,1244.4037,1246.087,"[""space""]",[0.6510999999977685],[null],7,0,7,0,1
,,,,,67edb211a7c1d23c1535d6b2,2026-02-02_15h43.10.903,causal,2025.1.1,Win32,60.24096386,,,,,,,,,,,,,,,,,,,,,,,,,,,,,,,,1246.0874,1246.7368,,,,1246.7372,1248.2531,,,,stimuli/collisions/calibration/stim3.mp4,,,,,,,,,,,,,,,,,,,,,,,,,,,,,,,,,,,,,,,,,,,,,,,,,,,,,,,,1246.7371,1246.7372,1248.2535,1252.3861,1252.3893,1252.9356,1,[1252.9418999999984],[1252.9418999999984],0,[],[],FALSE,FALSE,TRUE,1252.9358,1254.469,"[""space""]",[0.5013999999985117],[null],8,0,8,0,1
,,,,,67edb211a7c1d23c1535d6b2,2026-02-02_15h43.10.903,causal,2025.1.1,Win32,60.24096386,,,,,,,,,,,,,,,,,,,,,,,,,,,,,,,,1254.4694,1255.1855,,,,1255.186,1256.7018,,,,stimuli/collisions/calibration/stim12.mp4,,,,,,,,,,,,,,,,,,,,,,,,,,,,,,,,,,,,,,,,,,,,,,,,,,,,,,,,1255.1859,1255.186,1256.7022,1259.5347,1259.5383,1260.4512,0,[],[],1,[1260.4568000000006],[1260.4568000000006],TRUE,FALSE,FALSE,1260.4512,1263.5841,"[""space""]",[2.1006999999992786],[null],9,0,9,0,1
,,,,,67edb211a7c1d23c1535d6b2,2026-02-02_15h43.10.903,causal,2025.1.1,Win32,60.24096386,,,,,,,,,,,,,,,,,,,,,,,,,,,,,,,,1263.5846,1264.1174,,,,1264.1178,1265.6339,,,,stimuli/collisions/calibration/stim10.mp4,,,,,,,,,,,,,,,,,,,,,,,,,,,,,,,,,,,,,,,,,,,,,,,,,,,,,,,,1264.1176,1264.1178,1265.6343,1268.3998,1268.4024,1268.9833,0,[],[],1,[1268.9888999999985],[1268.9888999999985],TRUE,TRUE,TRUE,1268.9833,1270.6166,"[""space""]",[0.6000000000001364],[null],10,0,10,0,1
,,,,,67edb211a7c1d23c1535d6b2,2026-02-02_15h43.10.903,causal,2025.1.1,Win32,60.24096386,,,,,,,,,,,,,,,,,,,,,,,,,,,,,,,,1270.6169,1271.2829,,,,1271.2832,1272.7995,,,,stimuli/collisions/calibration/stim4.mp4,,,,,,,,,,,,,,,,,,,,,,,,,,,,,,,,,,,,,,,,,,,,,,,,,,,,,,,,1271.2831,1271.2832,1272.7999,1275.5659,1275.5686,1275.9655,0,[],[],1,[1275.9711999999993],[1275.9711999999993],TRUE,TRUE,TRUE,1275.9655,1277.5652,"[""space""]",[0.5670999999979358],[null],11,0,11,0,1
,,,,,67edb211a7c1d23c1535d6b2,2026-02-02_15h43.10.903,causal,2025.1.1,Win32,60.24096386,,,,,,,,,,,,,,,,,,,,,,,,,,,,,,,,1277.5657,1278.1653,,,,1278.1657,1279.6817,,,,stimuli/collisions/calibration/stim9.mp4,,,,,,,,,,,,,,,,,,,,,,,,,,,,,,,,,,,,,,,,,,,,,,,,,,,,,,,,1278.1656,1278.1657,1279.6822,1282.7811,1282.7856,1283.2309,1,[1283.2370999999976],[1283.2370999999976],0,[],[],FALSE,FALSE,TRUE,1283.231,1285.9142,"[""space""]",[1.6503000000006978],[null],12,0,12,0,1
,,,,,67edb211a7c1d23c1535d6b2,2026-02-02_15h43.10.903,causal,2025.1.1,Win32,60.24096386,,,,,,,,,,,,,,,,,,,,,,,,,,,,,,,,1285.9146,1286.4807,,,,1286.4811,1287.997,,,,stimuli/collisions/calibration/stim1.mp4,,,,,,,,,,,,,,,,,,,,,,,,,,,,,,,,,,,,,,,,,,,,,,,,,,,,,,,,1286.481,1286.4811,1287.9975,1291.33,1291.3332,1291.9964,1,[1292.0025999999975],[1292.0025999999975],0,[],[],FALSE,FALSE,TRUE,1291.9965,1293.7464,"[""space""]",[0.7175999999976739],[null],13,0,13,0,1
,,,,,67edb211a7c1d23c1535d6b2,2026-02-02_15h43.10.903,causal,2025.1.1,Win32,60.24096386,,,,,,,,,,,,,,,,,,,,,,,,,,,,,,,,1293.7467,1294.7959,,,,1294.7963,1296.3125,,,,stimuli/collisions/calibration/stim8.mp4,,,,,,,,,,,,,,,,,,,,,,,,,,,,,,,,,,,,,,,,,,,,,,,,,,,,,,,,1294.7961,1294.7963,1296.313,1299.8454,1299.848,1300.4451,1,[1300.4513000000006],[1300.4513000000006],0,[],[],FALSE,FALSE,TRUE,1300.4452,1302.2616,"[""space""]",[0.7836000000013428],[null],14,0,14,0,1
,,,,,67edb211a7c1d23c1535d6b2,2026-02-02_15h43.10.903,causal,2025.1.1,Win32,60.24096386,,,,,,,,,,,,,,,,,,,,,,,,,,,,,,,,1302.262,1302.6782,,,,1302.6786,1304.1947,,,,stimuli/collisions/calibration/stim11.mp4,,,,,,,,,,,,,,,,,,,,,,,,,,,,,,,,,,,,,,,,,,,,,,,,,,,,,,,,1302.6785,1302.6785,1304.1952,1307.094,1307.0968,1307.6271,0,[],[],1,[1307.633],[1307.633],TRUE,TRUE,TRUE,1307.6273,1309.0604,"[""space""]",[0.40090000000213877],[null],15,0,15,0,1
,,,,,67edb211a7c1d23c1535d6b2,2026-02-02_15h43.10.903,causal,2025.1.1,Win32,60.24096386,,,,,,,,,,,,,,,,,,,,,,,,,,,,,,,,1309.0608,1309.7103,,,,1309.7106,1311.2269,,,,stimuli/collisions/calibration/stim5.mp4,,,,,,,,,,,,,,,,,,,,,,,,,,,,,,,,,,,,,,,,,,,,,,,,,,,,,,,,1309.7106,1309.7106,1311.2274,1315.4265,1315.4291,1316.0592,1,[1316.0653999999986],[1316.0653999999986],0,[],[],FALSE,FALSE,TRUE,1316.0593,1317.5261,"[""space""]",[0.43430000000080327],[null],16,0,16,0,1
,,,,,67edb211a7c1d23c1535d6b2,2026-02-02_15h43.10.903,causal,2025.1.1,Win32,60.24096386,,,,,,,,,,,,,,,,,,,,,,,,,,,,,,,,1317.5264,1318.3425,,,,1318.3428,1319.8588,,,,stimuli/collisions/calibration/stim2.mp4,,,,,,,,,,,,,,,,,,,,,,,,,,,,,,,,,,,,,,,,,,,,,,,,,,,,,,,,1318.3428,1318.3428,1319.8592,1323.5583,1323.5604,1323.9415,1,[1323.9476999999993],[1323.9476999999993],0,[],[],FALSE,TRUE,FALSE,1323.9415,1325.7413,"[""space""]",[0.7686000000014701],[null],17,0,17,0,1
,,,,,67edb211a7c1d23c1535d6b2,2026-02-02_15h43.10.903,causal,2025.1.1,Win32,60.24096386,,,,,,,,,,,,,,,,,,,,,,,,,,,,,,,,1325.7416,1326.9908,,,,1326.9912,1328.5076,,,,stimuli/collisions/calibration/stim6.mp4,,,,,,,,,,,,,,,,,,,,,,,,,,,,,,,,,,,,,,,,,,,,,,,,,,,,,,,,1326.9911,1326.9912,1328.5081,1331.1742,1331.1774,1332.2235,1,[1332.2296999999994],[1332.2296999999994],0,[],[],FALSE,FALSE,TRUE,1332.2236,1333.7399,"[""space""]",[0.484000000000151],[null],18,0,18,0,1
,,,,,67edb211a7c1d23c1535d6b2,2026-02-02_15h43.10.903,causal,2025.1.1,Win32,60.24096386,,,,,,,,,,,,,,,,,,,,,,,,,,,,,,,,1333.7403,1334.2733,,,,1334.2737,1335.7896,,,,stimuli/collisions/calibration/stim15.mp4,,,,,,,,,,,,,,,,,,,,,,,,,,,,,,,,,,,,,,,,,,,,,,,,,,,,,,,,1334.2736,1334.2737,1335.7901,1339.1228,1339.1253,1339.739,0,[],[],1,[1339.7445999999977],[1339.7445999999977],TRUE,TRUE,TRUE,1339.7391,1342.3054,"[""space""]",[1.5358999999984917],[null],19,0,19,0,1
