intro.started,intro.stopped,button_6.numClicks,button_6.timesOn,button_6.timesOff,participant,date,expName,psychopyVersion,OS,frameRate,timing_info.started,timing_info.stopped,button_7.numClicks,button_7.timesOn,button_7.timesOff,hand_positions.started,hand_positions.stopped,space_bar.keys,space_bar.rt,space_bar.duration,train_keys.started,train_keys.stopped,key_resp.keys,key_resp.rt,key_resp.duration,score.started,score.stopped,training.thisRepN,training.thisTrialN,training.thisN,training.thisIndex,training.ran,training_rounds,test_instruct.started,test_instruct.stopped,instruct_cont.started,instruct_cont.stopped,point_instruct.started,point_instruct.stopped,accident_instruct.started,accident_instruct.stopped,advance.started,advance.stopped,flip_video.started,flip_video.stopped,trial_type,buffer.started,buffer.stopped,collision.started,collision.stopped,selection,stimuli_path,select_resp.keys,select_resp.rt,select_resp.duration,resp_trial,responsibility.started,responsibility.stopped,conf_2.response,button.numClicks,button.timesOn,button.timesOff,conf_one,conf_two,conf_three,conf_3.response,conf_1.response,forfeit.started,forfeit.stopped,forfeit_button.numClicks,forfeit_button.timesOn,forfeit_button.timesOff,keep_button.numClicks,keep_button.timesOn,keep_button.timesOff,accuracy.started,accuracy.stopped,rt_diff,acc_points,keep_round,practice_round,begin_review.started,begin_review.stopped,space_bar_6.keys,space_bar_6.rt,space_bar_6.duration,review_keys.started,review_keys.stopped,key_resp_2.keys,key_resp_2.rt,key_resp_2.duration,review_trials,baseline_rts,review.thisRepN,review.thisTrialN,review.thisN,review.thisIndex,review.ran,trials.thisRepN,trials.thisTrialN,trials.thisN,trials.thisIndex,trials.ran,transition.started,transition.stopped,calibrate_instruct.started,calibrate_instruct.stopped,flip_calibration.started,flip_calibration.stopped,calibrate.started,calibrate.stopped,prediction.started,prediction.stopped,miss.numClicks,miss.timesOn,miss.timesOff,hit.numClicks,hit.timesOn,hit.timesOff,calibration_pred,calibration_actual,calibration_score,cal_feedback.started,cal_feedback.stopped,space_bar_12.keys,space_bar_12.rt,space_bar_12.duration,calibration.thisRepN,calibration.thisTrialN,calibration.thisN,calibration.thisIndex,calibration.ran
0.0036,11.5849,1,[6.581699999988018],[6.581799999996974],687412b8d619a222cdd0bec9,2026-02-02_12h02.02.816,causal,2025.1.1,Win32,19.96007984,,,,,,,,,,,,,,,,,,,,,,,,,,,,,,,,,,,,,,,,,,,,,,,,,,,,,,,,,,,,,,,,,,,,,,,,,,,,,,,,,,,,,,,,,,,,,,,,,,,,,,,,,,,,,,,,,,,,,,,,,,
,,,,,687412b8d619a222cdd0bec9,2026-02-02_12h02.02.816,causal,2025.1.1,Win32,19.96007984,11.5872,18.3831,1,[1.796700000002943],[1.796700000002943],,,,,,,,,,,,,,,,,,,,,,,,,,,,,,,,,,,,,,,,,,,,,,,,,,,,,,,,,,,,,,,,,,,,,,,,,,,,,,,,,,,,,,,,,,,,,,,,,,,,,,,,,,,,,,,,,,,,,
,,,,,687412b8d619a222cdd0bec9,2026-02-02_12h02.02.816,causal,2025.1.1,Win32,19.96007984,,,,,,18.3837,38.5271,"[""a"",""space""]","[0.4342000000029884,17.096200000003023]","[null,null]",,,,,,,,,,,,,,,,,,,,,,,,,,,,,,,,,,,,,,,,,,,,,,,,,,,,,,,,,,,,,,,,,,,,,,,,,,,,,,,,,,,,,,,,,,,,,,,,,,,,,,,,,,,,,,,,
,,,,,687412b8d619a222cdd0bec9,2026-02-02_12h02.02.816,causal,2025.1.1,Win32,19.96007984,,,,,,,,,,,120.9979,121.9973,f,0.6503,,121.9984,127.615,0,0,0,0,1,,,,,,,,,,,,,,,,,,,,,,,,,,,,,,,,,,,,,,,,,,,,,,,,,,,,,,,,,,,,,,,,,,,,,,,,,,,,,,,,,,,,,,,,,,,,,,,,,,,,
,,,,,687412b8d619a222cdd0bec9,2026-02-02_12h02.02.816,causal,2025.1.1,Win32,19.96007984,,,,,,,,,,,193.5092,194.6268,j,0.7764,,194.6268,198.3302,1,0,1,0,1,2,,,,,,,,,,,,,,,,,,,,,,,,,,,,,,,,,,,,,,,,,,,,,,,,,,,,,,,,,,,,,,,,,,,,,,,,,,,,,,,,,,,,,,,,,,,,,,,,,,,
,,,,,687412b8d619a222cdd0bec9,2026-02-02_12h02.02.816,causal,2025.1.1,Win32,19.96007984,,,,,,,,,,,,,,,,,,,,,,,,198.3313,219.5205,,,,,,,,,,,,,,,,,,,,,,,,,,,,,,,,,,,,,,,,,,,,,,,,,,,,,,,,,,,,,,,,,,,,,,,,,,,,,,,,,,,,,,,,,,,,,,,,,
,,,,,687412b8d619a222cdd0bec9,2026-02-02_12h02.02.816,causal,2025.1.1,Win32,19.96007984,,,,,,,,,,,,,,,,,,,,,,,,,,219.5207,242.4635,,,,,,,,,,,,,,,,,,,,,,,,,,,,,,,,,,,,,,,,,,,,,,,,,,,,,,,,,,,,,,,,,,,,,,,,,,,,,,,,,,,,,,,,,,,,,,,
,,,,,687412b8d619a222cdd0bec9,2026-02-02_12h02.02.816,causal,2025.1.1,Win32,19.96007984,,,,,,,,,,,,,,,,,,,,,,,,,,,,242.4644,269.77,,,,,,,,,,,,,,,,,,,,,,,,,,,,,,,,,,,,,,,,,,,,,,,,,,,,,,,,,,,,,,,,,,,,,,,,,,,,,,,,,,,,,,,,,,,,,
,,,,,687412b8d619a222cdd0bec9,2026-02-02_12h02.02.816,causal,2025.1.1,Win32,19.96007984,,,,,,,,,,,,,,,,,,,,,,,,,,,,,,269.7704,278.798,,,,,,,,,,,,,,,,,,,,,,,,,,,,,,,,,,,,,,,,,,,,,,,,,,,,,,,,,,,,,,,,,,,,,,,,,,,,,,,,,,,,,,,,,,,
,,,,,687412b8d619a222cdd0bec9,2026-02-02_12h02.02.816,causal,2025.1.1,Win32,19.96007984,,,,,,,,,,,,,,,,,,,,,,,,,,,,,,,,278.8106,280.4714,280.4734,280.4745,train,343.4293,344.4433,282.0061,284.3939,green,stimuli/collisions/training/stim3.mp4,j,2.0304,,TRUE,284.4107,305.6189,100,1,[1.022700000002942],[1.022700000002942],red,green,blue,1,0,305.6213,308.7965,0,[],[],1,[308.99990000000594],[308.99990000000594],308.7988,319.0374,1.5295,30,TRUE,TRUE,319.0379,322.17,"[""space""]",[1.106999999999971],[null],344.4436,345.45,space,0.5729,,9,"[0.88,0.72,1.06,0.7,0.67,0.66,0.65,0.68,0.57]",9,0,9,0,1,,,,,,,,,,,,,,,,,,,,,,,,,,,,,,,,,,
,,,,,687412b8d619a222cdd0bec9,2026-02-02_12h02.02.816,causal,2025.1.1,Win32,19.96007984,,,,,,,,,,,,,,,,,,,,,,,,,,,,,,,,,,,,,,,,,,,,,,,,,,,,,,,,,,,,,,,,,,,,,,,,,,,,,,,,,,,,,,,,,0,0,0,0,1,,,,,,,,,,,,,,,,,,,,,,,,,,,,,
,,,,,687412b8d619a222cdd0bec9,2026-02-02_12h02.02.816,causal,2025.1.1,Win32,19.96007984,,,,,,,,,,,,,,,,,,,,,,,,,,,,,,,,345.4515,346.2831,346.2834,346.2837,train,359.2313,359.232,347.8049,350.3575,miss,stimuli/collisions/training/stim2.mp4,space,2.1977,,TRUE,350.3618,350.3787,,0,[],[],red,green,blue,,,350.383,354.4157,0,[],[],1,[354.62129999999695],[354.6214000000059],354.4179,359.2233,1.8023,65,TRUE,FALSE,359.2245,359.2256,,,,359.2323,359.2352,,,,,,0,0,0,0,1,,,,,,,,,,,,,,,,,,,,,,,,,,,,,,,,,,
,,,,,687412b8d619a222cdd0bec9,2026-02-02_12h02.02.816,causal,2025.1.1,Win32,19.96007984,,,,,,,,,,,,,,,,,,,,,,,,,,,,,,,,,,,,,,,,,,,,,,,,,,,,,,,,,,,,,,,,,,,,,,,,,,,,,,,,,,,,,,,,,1,0,1,0,1,,,,,,,,,,,,,,,,,,,,,,,,,,,,,
,,,,,687412b8d619a222cdd0bec9,2026-02-02_12h02.02.816,causal,2025.1.1,Win32,19.96007984,,,,,,,,,,,,,,,,,,,,,,,,,,,,,,,,359.2365,360.7529,360.7534,360.7537,train,398.4953,399.5026,362.3124,364.9534,miss,stimuli/collisions/training/stim1.mp4,space,2.1253,,TRUE,364.9675,365.0288,,0,[],[],red,green,blue,,,365.0447,368.019,0,[],[],1,[368.223900000006],[368.223900000006],368.0206,372.0106,2.0147,25,TRUE,TRUE,372.0109,376.3367,"[""space""]",[2.2077999999969506],[null],399.5029,400.6261,j,0.7784,,9,"[2.12,0.77,0.71,0.72,0.76,0.89,0.77,0.76,0.91,0.78]",9,0,9,0,1,,,,,,,,,,,,,,,,,,,,,,,,,,,,,,,,,,
,,,,,687412b8d619a222cdd0bec9,2026-02-02_12h02.02.816,causal,2025.1.1,Win32,19.96007984,,,,,,,,,,,,,,,,,,,,,,,,,,,,,,,,,,,,,,,,,,,,,,,,,,,,,,,,,,,,,,,,,,,,,,,,,,,,,,,,,,,,,,,,,2,0,2,0,1,,,,,,,,,,,,,,,,,,,,,,,,,,,,,
,,,,,687412b8d619a222cdd0bec9,2026-02-02_12h02.02.816,causal,2025.1.1,Win32,19.96007984,,,,,,,,,,,,,,,,,,,,,,,,,,,,,,,,400.6268,401.9741,401.9745,401.9747,test,420.6656,420.6658,403.4922,406.954,red,stimuli/collisions/hit/stim17.mp4,j,3.0901,,TRUE,406.9586,414.8455,0,1,[0.8094999999999573],[0.8095999999940204],red,green,blue,12,96,414.8478,416.0761,0,[],[],1,[416.2819999999999],[416.282099999994],416.0765,420.6643,1.2199,55,TRUE,FALSE,420.6644,420.6645,,,,420.6658,420.6661,,,,,,0,0,0,0,1,,,,,,,,,,,,,,,,,,,,,,,,,,,,,,,,,,
,,,,,687412b8d619a222cdd0bec9,2026-02-02_12h02.02.816,causal,2025.1.1,Win32,19.96007984,,,,,,,,,,,,,,,,,,,,,,,,,,,,,,,,,,,,,,,,,,,,,,,,,,,,,,,,,,,,,,,,,,,,,,,,,,,,,,,,,,,,,,,,,3,0,3,0,1,,,,,,,,,,,,,,,,,,,,,,,,,,,,,
,,,,,687412b8d619a222cdd0bec9,2026-02-02_12h02.02.816,causal,2025.1.1,Win32,19.96007984,,,,,,,,,,,,,,,,,,,,,,,,,,,,,,,,420.6663,423.7844,423.7846,423.7847,catch,433.2098,433.21,425.3023,427.9517,miss,stimuli/collisions/miss/stim4.mp4,space,2.3031,,TRUE,427.9553,427.9617,,0,[],[],red,green,blue,,,427.964,430.1026,0,[],[],1,[430.30879999999695],[430.30879999999695],430.1033,433.2063,1.6969,85,TRUE,FALSE,433.2065,433.2066,,,,433.21,433.2104,,,,,,0,0,0,0,1,,,,,,,,,,,,,,,,,,,,,,,,,,,,,,,,,,
,,,,,687412b8d619a222cdd0bec9,2026-02-02_12h02.02.816,causal,2025.1.1,Win32,19.96007984,,,,,,,,,,,,,,,,,,,,,,,,,,,,,,,,,,,,,,,,,,,,,,,,,,,,,,,,,,,,,,,,,,,,,,,,,,,,,,,,,,,,,,,,,4,0,4,0,1,,,,,,,,,,,,,,,,,,,,,,,,,,,,,
,,,,,687412b8d619a222cdd0bec9,2026-02-02_12h02.02.816,causal,2025.1.1,Win32,19.96007984,,,,,,,,,,,,,,,,,,,,,,,,,,,,,,,,433.2106,434.6913,434.6914,434.6915,test,455.2751,455.2759,436.2391,439.6877,green,stimuli/collisions/hit/stim5.mp4,j,3.3694,,TRUE,439.7018,449.6904,49,1,[0.9467999999969834],[0.9468999999910466],red,green,blue,12,4,449.7026,450.6843,0,[],[],1,[450.8887000000029],[450.8887000000029],450.6863,455.2686,0.8782,110,TRUE,FALSE,455.269,455.2697,,,,455.2763,455.2817,,,,,,0,0,0,0,1,,,,,,,,,,,,,,,,,,,,,,,,,,,,,,,,,,
,,,,,687412b8d619a222cdd0bec9,2026-02-02_12h02.02.816,causal,2025.1.1,Win32,19.96007984,,,,,,,,,,,,,,,,,,,,,,,,,,,,,,,,,,,,,,,,,,,,,,,,,,,,,,,,,,,,,,,,,,,,,,,,,,,,,,,,,,,,,,,,,5,0,5,0,1,,,,,,,,,,,,,,,,,,,,,,,,,,,,,
,,,,,687412b8d619a222cdd0bec9,2026-02-02_12h02.02.816,causal,2025.1.1,Win32,19.96007984,,,,,,,,,,,,,,,,,,,,,,,,,,,,,,,,455.2839,468.242,468.2422,468.2424,test,487.4049,487.4054,469.7719,473.7553,red,stimuli/collisions/hit/stim10.mp4,j,3.5755,,TRUE,473.7688,479.4451,96,1,[0.790599999994015],[0.790599999994015],red,green,blue,10,21,479.4477,480.6793,0,[],[],1,[480.88370000000293],[480.883799999997],480.6802,487.4016,0.6645,135,TRUE,FALSE,487.4017,487.4021,,,,487.4056,487.4068,,,,,,0,0,0,0,1,,,,,,,,,,,,,,,,,,,,,,,,,,,,,,,,,,
,,,,,687412b8d619a222cdd0bec9,2026-02-02_12h02.02.816,causal,2025.1.1,Win32,19.96007984,,,,,,,,,,,,,,,,,,,,,,,,,,,,,,,,,,,,,,,,,,,,,,,,,,,,,,,,,,,,,,,,,,,,,,,,,,,,,,,,,,,,,,,,,6,0,6,0,1,,,,,,,,,,,,,,,,,,,,,,,,,,,,,
,,,,,687412b8d619a222cdd0bec9,2026-02-02_12h02.02.816,causal,2025.1.1,Win32,19.96007984,,,,,,,,,,,,,,,,,,,,,,,,,,,,,,,,487.4073,490.9543,490.9548,490.955,test,516.0324,516.0333,492.4741,495.5305,green,stimuli/collisions/hit/stim8.mp4,space,2.8711,,TRUE,495.5328,509.3412,0,1,[1.3179999999999836],[1.3181000000089398],red,green,blue,100,0,509.3444,510.8253,0,[],[],1,[511.03099999999995],[511.03099999999995],510.8256,516.0307,0.6533,160,TRUE,FALSE,516.0308,516.0309,,,,516.0338,516.0345,,,,,,0,0,0,0,1,,,,,,,,,,,,,,,,,,,,,,,,,,,,,,,,,,
,,,,,687412b8d619a222cdd0bec9,2026-02-02_12h02.02.816,causal,2025.1.1,Win32,19.96007984,,,,,,,,,,,,,,,,,,,,,,,,,,,,,,,,,,,,,,,,,,,,,,,,,,,,,,,,,,,,,,,,,,,,,,,,,,,,,,,,,,,,,,,,,7,0,7,0,1,,,,,,,,,,,,,,,,,,,,,,,,,,,,,
,,,,,687412b8d619a222cdd0bec9,2026-02-02_12h02.02.816,causal,2025.1.1,Win32,19.96007984,,,,,,,,,,,,,,,,,,,,,,,,,,,,,,,,516.0348,517.7995,517.7998,517.7999,catch,592.8323,593.8461,519.3017,521.937,miss,stimuli/collisions/miss/stim2.mp4,space,2.3055,,TRUE,521.9423,521.9609,,0,[],[],red,green,blue,,,521.9644,522.8439,0,[],[],1,[523.050099999994],[523.050099999994],522.8441,526.2938,1.6945,190,TRUE,TRUE,526.294,529.1333,"[""space""]",[0.7906000000090216],[null],593.8465,595.2142,f,0.8297,,24,"[2.66,2.09,1.06,1.09,0.76,0.6,0.74,0.74,0.66,0.75,0.66,0.65,0.79,0.96,0.73,0.83,0.96,0.83]",24,0,24,0,1,,,,,,,,,,,,,,,,,,,,,,,,,,,,,,,,,,
,,,,,687412b8d619a222cdd0bec9,2026-02-02_12h02.02.816,causal,2025.1.1,Win32,19.96007984,,,,,,,,,,,,,,,,,,,,,,,,,,,,,,,,,,,,,,,,,,,,,,,,,,,,,,,,,,,,,,,,,,,,,,,,,,,,,,,,,,,,,,,,,8,0,8,0,1,,,,,,,,,,,,,,,,,,,,,,,,,,,,,
,,,,,687412b8d619a222cdd0bec9,2026-02-02_12h02.02.816,causal,2025.1.1,Win32,19.96007984,,,,,,,,,,,,,,,,,,,,,,,,,,,,,,,,595.2153,597.4907,597.4909,597.4911,test,612.7251,612.7255,599.0114,601.6189,blue,stimuli/collisions/hit/stim18.mp4,f,2.2323,,TRUE,601.6246,608.6257,12,1,[1.9412999999969998],[1.9412999999969998],red,green,blue,100,3,608.6303,609.5442,0,[],[],1,[609.75],[609.75],609.5446,612.723,0.9077,215,TRUE,FALSE,612.723,612.7232,,,,612.7256,612.7266,,,,,,0,0,0,0,1,,,,,,,,,,,,,,,,,,,,,,,,,,,,,,,,,,
,,,,,687412b8d619a222cdd0bec9,2026-02-02_12h02.02.816,causal,2025.1.1,Win32,19.96007984,,,,,,,,,,,,,,,,,,,,,,,,,,,,,,,,,,,,,,,,,,,,,,,,,,,,,,,,,,,,,,,,,,,,,,,,,,,,,,,,,,,,,,,,,9,0,9,0,1,,,,,,,,,,,,,,,,,,,,,,,,,,,,,
,,,,,687412b8d619a222cdd0bec9,2026-02-02_12h02.02.816,causal,2025.1.1,Win32,19.96007984,,,,,,,,,,,,,,,,,,,,,,,,,,,,,,,,612.7272,614.4063,614.4064,614.4064,test,632.487,632.4873,615.9103,618.8064,blue,stimuli/collisions/hit/stim2.mp4,f,2.5149,,TRUE,618.8212,626.4162,23,1,[0.9847999999969943],[0.9847999999969943],red,green,blue,94,19,626.4236,627.419,0,[],[],1,[627.6237000000029],[627.6237000000029],627.4212,632.4843,1.3951,245,TRUE,FALSE,632.4844,632.4849,,,,632.4874,632.4885,,,,,,0,0,0,0,1,,,,,,,,,,,,,,,,,,,,,,,,,,,,,,,,,,
,,,,,687412b8d619a222cdd0bec9,2026-02-02_12h02.02.816,causal,2025.1.1,Win32,19.96007984,,,,,,,,,,,,,,,,,,,,,,,,,,,,,,,,,,,,,,,,,,,,,,,,,,,,,,,,,,,,,,,,,,,,,,,,,,,,,,,,,,,,,,,,,10,0,10,0,1,,,,,,,,,,,,,,,,,,,,,,,,,,,,,
,,,,,687412b8d619a222cdd0bec9,2026-02-02_12h02.02.816,causal,2025.1.1,Win32,19.96007984,,,,,,,,,,,,,,,,,,,,,,,,,,,,,,,,632.4889,633.4288,633.429,633.4291,catch,641.4556,641.4557,634.9418,637.8333,miss,stimuli/collisions/miss/stim1.mp4,space,2.5401,,TRUE,637.8379,637.8469,,0,[],[],red,green,blue,,,637.8525,638.9329,0,[],[],1,[639.1389999999999],[639.1389999999999],638.9342,641.4546,1.4599,275,TRUE,FALSE,641.4546,641.4548,,,,641.4558,641.4564,,,,,,0,0,0,0,1,,,,,,,,,,,,,,,,,,,,,,,,,,,,,,,,,,
,,,,,687412b8d619a222cdd0bec9,2026-02-02_12h02.02.816,causal,2025.1.1,Win32,19.96007984,,,,,,,,,,,,,,,,,,,,,,,,,,,,,,,,,,,,,,,,,,,,,,,,,,,,,,,,,,,,,,,,,,,,,,,,,,,,,,,,,,,,,,,,,11,0,11,0,1,,,,,,,,,,,,,,,,,,,,,,,,,,,,,
,,,,,687412b8d619a222cdd0bec9,2026-02-02_12h02.02.816,causal,2025.1.1,Win32,19.96007984,,,,,,,,,,,,,,,,,,,,,,,,,,,,,,,,641.4565,643.1229,643.1231,643.1232,catch,683.9932,684.9959,644.6398,647.5288,red,stimuli/collisions/miss/stim5.mp4,k,2.7656,,TRUE,647.5317,653.2502,9,1,[1.2850999999939177],[1.2850999999939177],red,green,blue,10,9,653.2546,654.3748,0,[],[],1,[654.5805],[654.5805],654.3751,657.7891,1.4917,235,TRUE,TRUE,657.7893,663.3867,"[""space""]",[3.587199999987888],[null],684.9963,686.0767,k,0.6867,,9,"[1.53,1.24,0.7,0.68,0.66,0.69,0.78,1.05,0.69,0.69]",9,0,9,0,1,,,,,,,,,,,,,,,,,,,,,,,,,,,,,,,,,,
,,,,,687412b8d619a222cdd0bec9,2026-02-02_12h02.02.816,causal,2025.1.1,Win32,19.96007984,,,,,,,,,,,,,,,,,,,,,,,,,,,,,,,,,,,,,,,,,,,,,,,,,,,,,,,,,,,,,,,,,,,,,,,,,,,,,,,,,,,,,,,,,12,0,12,0,1,,,,,,,,,,,,,,,,,,,,,,,,,,,,,
,,,,,687412b8d619a222cdd0bec9,2026-02-02_12h02.02.816,causal,2025.1.1,Win32,19.96007984,,,,,,,,,,,,,,,,,,,,,,,,,,,,,,,,686.0774,687.2278,687.228,687.2282,test,701.8945,701.8952,688.7306,691.6595,green,stimuli/collisions/hit/stim9.mp4,k,2.5673,,TRUE,691.6727,698.0531,18,1,[1.0635000000002037],[1.0635000000002037],red,green,blue,13,91,698.0638,699.001,0,[],[],1,[699.2032999999968],[699.2032999999968],699.004,701.8883,0.4027,260,TRUE,FALSE,701.8885,701.8897,,,,701.8955,701.8985,,,,,,0,0,0,0,1,,,,,,,,,,,,,,,,,,,,,,,,,,,,,,,,,,
,,,,,687412b8d619a222cdd0bec9,2026-02-02_12h02.02.816,causal,2025.1.1,Win32,19.96007984,,,,,,,,,,,,,,,,,,,,,,,,,,,,,,,,,,,,,,,,,,,,,,,,,,,,,,,,,,,,,,,,,,,,,,,,,,,,,,,,,,,,,,,,,13,0,13,0,1,,,,,,,,,,,,,,,,,,,,,,,,,,,,,
,,,,,687412b8d619a222cdd0bec9,2026-02-02_12h02.02.816,causal,2025.1.1,Win32,19.96007984,,,,,,,,,,,,,,,,,,,,,,,,,,,,,,,,701.8995,703.2637,703.2641,703.2645,catch,758.8327,759.8496,704.7804,707.6335,red,stimuli/collisions/miss/stim3.mp4,j,2.4338,,TRUE,707.648,717.329,0,1,[1.6036000000090098],[1.6036000000090098],red,green,blue,2,4,717.3429,718.3472,0,[],[],1,[718.5497000000029],[718.5497000000029],718.3486,728.3951,1.5662,220,TRUE,TRUE,728.3955,736.4682,"[""space""]",[5.988100000008899],[null],759.8497,760.9348,j,0.74,,9,"[3.1,1.1,0.89,1.2,0.77,0.64,0.49,1,0.65,0.74]",9,0,9,0,1,,,,,,,,,,,,,,,,,,,,,,,,,,,,,,,,,,
,,,,,687412b8d619a222cdd0bec9,2026-02-02_12h02.02.816,causal,2025.1.1,Win32,19.96007984,,,,,,,,,,,,,,,,,,,,,,,,,,,,,,,,,,,,,,,,,,,,,,,,,,,,,,,,,,,,,,,,,,,,,,,,,,,,,,,,,,,,,,,,,14,0,14,0,1,,,,,,,,,,,,,,,,,,,,,,,,,,,,,
,,,,,687412b8d619a222cdd0bec9,2026-02-02_12h02.02.816,causal,2025.1.1,Win32,19.96007984,,,,,,,,,,,,,,,,,,,,,,,,,,,,,,,,760.9351,761.7018,761.702,761.7021,test,791.3414,791.3416,763.2042,765.6803,green,stimuli/collisions/hit/stim7.mp4,k,2.1304,,TRUE,765.6852,776.6868,98,1,[4.872099999993907],[4.872099999993907],red,green,blue,4,3,776.6929,777.8944,0,[],[],1,[778.0999000000057],[778.0999000000057],777.8948,791.3404,1.1396,250,TRUE,FALSE,791.3404,791.3406,,,,791.3416,791.342,,,,,,0,0,0,0,1,,,,,,,,,,,,,,,,,,,,,,,,,,,,,,,,,,
,,,,,687412b8d619a222cdd0bec9,2026-02-02_12h02.02.816,causal,2025.1.1,Win32,19.96007984,,,,,,,,,,,,,,,,,,,,,,,,,,,,,,,,,,,,,,,,,,,,,,,,,,,,,,,,,,,,,,,,,,,,,,,,,,,,,,,,,,,,,,,,,15,0,15,0,1,,,,,,,,,,,,,,,,,,,,,,,,,,,,,
,,,,,687412b8d619a222cdd0bec9,2026-02-02_12h02.02.816,causal,2025.1.1,Win32,19.96007984,,,,,,,,,,,,,,,,,,,,,,,,,,,,,,,,791.3423,793.4719,793.4721,793.4722,test,833.6053,834.6084,794.9949,797.6746,red,stimuli/collisions/hit/stim14.mp4,j,2.3074,,TRUE,797.6833,803.8671,8,1,[0.7605000000000928],[0.7605000000000928],red,green,blue,3,88,803.8721,804.8181,0,[],[],1,[805.0237000000028],[805.0237000000028],804.8184,807.5857,0.6326,275,TRUE,TRUE,807.5858,812.578,"[""space""]",[2.936099999993985],[null],834.6086,835.9917,k,0.969,,9,"[1.19,1.4,0.61,0.66,0.61,1.36,0.7,0.67,0.74,0.97]",9,0,9,0,1,,,,,,,,,,,,,,,,,,,,,,,,,,,,,,,,,,
,,,,,687412b8d619a222cdd0bec9,2026-02-02_12h02.02.816,causal,2025.1.1,Win32,19.96007984,,,,,,,,,,,,,,,,,,,,,,,,,,,,,,,,,,,,,,,,,,,,,,,,,,,,,,,,,,,,,,,,,,,,,,,,,,,,,,,,,,,,,,,,,16,0,16,0,1,,,,,,,,,,,,,,,,,,,,,,,,,,,,,
,,,,,687412b8d619a222cdd0bec9,2026-02-02_12h02.02.816,causal,2025.1.1,Win32,19.96007984,,,,,,,,,,,,,,,,,,,,,,,,,,,,,,,,835.9936,836.9624,836.9626,836.9631,test,856.1726,856.1736,838.5084,840.9292,red,stimuli/collisions/hit/stim6.mp4,j,1.9884,,TRUE,840.943,851.6938,0,1,[4.226299999997082],[4.226299999997082],red,green,blue,0,100,851.7062,852.5806,0,[],[],1,[852.7847000000028],[852.7847999999968],852.5819,856.1654,1.2516,305,TRUE,FALSE,856.1659,856.1667,,,,856.174,856.1777,,,,,,0,0,0,0,1,,,,,,,,,,,,,,,,,,,,,,,,,,,,,,,,,,
,,,,,687412b8d619a222cdd0bec9,2026-02-02_12h02.02.816,causal,2025.1.1,Win32,19.96007984,,,,,,,,,,,,,,,,,,,,,,,,,,,,,,,,,,,,,,,,,,,,,,,,,,,,,,,,,,,,,,,,,,,,,,,,,,,,,,,,,,,,,,,,,17,0,17,0,1,,,,,,,,,,,,,,,,,,,,,,,,,,,,,
,,,,,687412b8d619a222cdd0bec9,2026-02-02_12h02.02.816,causal,2025.1.1,Win32,19.96007984,,,,,,,,,,,,,,,,,,,,,,,,,,,,,,,,856.1788,857.4955,857.4961,857.497,test,871.0853,871.0869,859.0312,861.3924,red,stimuli/collisions/hit/stim1.mp4,j,1.9534,,TRUE,861.4079,867.3113,5,1,[1.040499999999838],[1.040499999999838],red,green,blue,2,98,867.3253,868.2392,0,[],[],1,[868.4409000000059],[868.4409000000059],868.2409,871.078,1.4166,335,TRUE,FALSE,871.0782,871.0797,,,,871.0873,871.0927,,,,,,0,0,0,0,1,,,,,,,,,,,,,,,,,,,,,,,,,,,,,,,,,,
,,,,,687412b8d619a222cdd0bec9,2026-02-02_12h02.02.816,causal,2025.1.1,Win32,19.96007984,,,,,,,,,,,,,,,,,,,,,,,,,,,,,,,,,,,,,,,,,,,,,,,,,,,,,,,,,,,,,,,,,,,,,,,,,,,,,,,,,,,,,,,,,18,0,18,0,1,,,,,,,,,,,,,,,,,,,,,,,,,,,,,
,,,,,687412b8d619a222cdd0bec9,2026-02-02_12h02.02.816,causal,2025.1.1,Win32,19.96007984,,,,,,,,,,,,,,,,,,,,,,,,,,,,,,,,871.0942,873.0901,873.0915,873.0922,catch,881.3942,881.3952,874.6123,877.0022,miss,stimuli/collisions/miss/stim6.mp4,space,2.0031,,TRUE,877.0139,877.1101,,0,[],[],red,green,blue,,,877.1258,878.8847,0,[],[],1,[879.0900999999939],[879.0900999999939],878.8876,881.3869,1.9969,370,TRUE,FALSE,881.3874,881.3894,,,,881.3955,881.399,,,,,,0,0,0,0,1,,,,,,,,,,,,,,,,,,,,,,,,,,,,,,,,,,
,,,,,687412b8d619a222cdd0bec9,2026-02-02_12h02.02.816,causal,2025.1.1,Win32,19.96007984,,,,,,,,,,,,,,,,,,,,,,,,,,,,,,,,,,,,,,,,,,,,,,,,,,,,,,,,,,,,,,,,,,,,,,,,,,,,,,,,,,,,,,,,,19,0,19,0,1,,,,,,,,,,,,,,,,,,,,,,,,,,,,,
,,,,,687412b8d619a222cdd0bec9,2026-02-02_12h02.02.816,causal,2025.1.1,Win32,19.96007984,,,,,,,,,,,,,,,,,,,,,,,,,,,,,,,,881.4018,882.2045,882.2048,882.2055,test,898.1579,898.1587,883.7301,886.5397,green,stimuli/collisions/hit/stim3.mp4,k,2.3763,,TRUE,886.5541,893.8692,100,1,[2.0022000000030857],[2.0022000000030857],red,green,blue,0,0,893.8787,894.6801,0,[],[],1,[894.8844000000057],[894.8844999999998],894.6819,898.1512,0.9637,395,TRUE,FALSE,898.1522,898.1533,,,,898.1591,898.1627,,,,,,0,0,0,0,1,,,,,,,,,,,,,,,,,,,,,,,,,,,,,,,,,,
,,,,,687412b8d619a222cdd0bec9,2026-02-02_12h02.02.816,causal,2025.1.1,Win32,19.96007984,,,,,,,,,,,,,,,,,,,,,,,,,,,,,,,,,,,,,,,,,,,,,,,,,,,,,,,,,,,,,,,,,,,,,,,,,,,,,,,,,,,,,,,,,20,0,20,0,1,,,,,,,,,,,,,,,,,,,,,,,,,,,,,
,,,,,687412b8d619a222cdd0bec9,2026-02-02_12h02.02.816,causal,2025.1.1,Win32,19.96007984,,,,,,,,,,,,,,,,,,,,,,,,,,,,,,,,898.1642,899.1031,899.1034,899.1039,test,913.0586,913.0596,900.6494,903.9818,blue,stimuli/collisions/hit/stim4.mp4,f,2.934,,TRUE,903.9968,909.0878,7,1,[0.9284000000059223],[0.9284999999999854],red,green,blue,97,4,909.1001,910.0096,0,[],[],1,[910.2135999999938],[910.2135999999938],910.0107,913.0522,1.076,425,TRUE,FALSE,913.0525,913.0536,,,,913.0602,913.0667,,,,,,0,0,0,0,1,,,,,,,,,,,,,,,,,,,,,,,,,,,,,,,,,,
,,,,,687412b8d619a222cdd0bec9,2026-02-02_12h02.02.816,causal,2025.1.1,Win32,19.96007984,,,,,,,,,,,,,,,,,,,,,,,,,,,,,,,,,,,,,,,,,,,,,,,,,,,,,,,,,,,,,,,,,,,,,,,,,,,,,,,,,,,,,,,,,21,0,21,0,1,,,,,,,,,,,,,,,,,,,,,,,,,,,,,
,,,,,687412b8d619a222cdd0bec9,2026-02-02_12h02.02.816,causal,2025.1.1,Win32,19.96007984,,,,,,,,,,,,,,,,,,,,,,,,,,,,,,,,913.0693,914.0492,914.0496,914.0501,test,927.7437,927.744,915.5652,918.8778,green,stimuli/collisions/hit/stim12.mp4,k,2.8991,,TRUE,918.892,924.2699,97,1,[0.7317000000030021],[0.7317000000030021],red,green,blue,1,4,924.2752,925.1286,0,[],[],1,[925.334099999994],[925.3342000000029],925.129,927.7417,1.2109,455,TRUE,FALSE,927.7418,927.7421,,,,927.7441,927.7448,,,,,,0,0,0,0,1,,,,,,,,,,,,,,,,,,,,,,,,,,,,,,,,,,
,,,,,687412b8d619a222cdd0bec9,2026-02-02_12h02.02.816,causal,2025.1.1,Win32,19.96007984,,,,,,,,,,,,,,,,,,,,,,,,,,,,,,,,,,,,,,,,,,,,,,,,,,,,,,,,,,,,,,,,,,,,,,,,,,,,,,,,,,,,,,,,,22,0,22,0,1,,,,,,,,,,,,,,,,,,,,,,,,,,,,,
,,,,,687412b8d619a222cdd0bec9,2026-02-02_12h02.02.816,causal,2025.1.1,Win32,19.96007984,,,,,,,,,,,,,,,,,,,,,,,,,,,,,,,,927.7451,928.9708,928.9712,928.9715,test,1009.6265,1010.6708,930.4809,935.3905,timeout,stimuli/collisions/hit/stim16.mp4,,,,TRUE,935.398,935.4159,,0,[],[],red,green,blue,,,935.4219,935.4234,0,[],[],0,[],[],935.4238,938.988,-2.0973,405,TRUE,TRUE,938.9882,941.849,"[""space""]",[0.771100000009028],[null],1010.671,1011.6894,f,0.6329,,24,"[1.17,1.18,0.88,0.73,1.5,1.23,1.24,0.84,1.91,1.06,1.08,2.36,0.77,0.65,0.78,0.72,0.73,0.63]",24,0,24,0,1,,,,,,,,,,,,,,,,,,,,,,,,,,,,,,,,,,
,,,,,687412b8d619a222cdd0bec9,2026-02-02_12h02.02.816,causal,2025.1.1,Win32,19.96007984,,,,,,,,,,,,,,,,,,,,,,,,,,,,,,,,,,,,,,,,,,,,,,,,,,,,,,,,,,,,,,,,,,,,,,,,,,,,,,,,,,,,,,,,,23,0,23,0,1,,,,,,,,,,,,,,,,,,,,,,,,,,,,,
,,,,,687412b8d619a222cdd0bec9,2026-02-02_12h02.02.816,causal,2025.1.1,Win32,19.96007984,,,,,,,,,,,,,,,,,,,,,,,,,,,,,,,,1011.6902,1013.0426,1013.043,1013.0435,test,1095.6209,1096.638,1014.5496,1018.5592,green,stimuli/collisions/hit/stim15.mp4,k,3.5854,,TRUE,1018.5748,1065.4898,97,1,[33.95739999999091],[33.95739999999091],red,green,blue,0,2,1065.507,1067.1369,0,[],[],1,[1067.340700000003],[1067.3407999999968],1067.1403,1070.3627,1.0546,430,TRUE,TRUE,1070.3645,1074.9643,"[""space""]",[2.5399999999999636],[null],1096.6381,1097.6729,k,0.7012,,9,"[1.18,0.63,0.61,0.84,0.63,0.65,0.63,0.95,0.7]",9,0,9,0,1,,,,,,,,,,,,,,,,,,,,,,,,,,,,,,,,,,
,,,,,687412b8d619a222cdd0bec9,2026-02-02_12h02.02.816,causal,2025.1.1,Win32,19.96007984,,,,,,,,,,,,,,,,,,,,,,,,,,,,,,,,,,,,,,,,,,,,,,,,,,,,,,,,,,,,,,,,,,,,,,,,,,,,,,,,,,,,,,,,,24,0,24,0,1,,,,,,,,,,,,,,,,,,,,,,,,,,,,,
,,,,,687412b8d619a222cdd0bec9,2026-02-02_12h02.02.816,causal,2025.1.1,Win32,19.96007984,,,,,,,,,,,,,,,,,,,,,,,,,,,,,,,,1097.6732,1098.623,1098.6232,1098.6233,test,1112.2247,1112.2254,1100.1251,1102.5613,red,stimuli/collisions/hit/stim11.mp4,j,2.1026,,TRUE,1102.5659,1108.1133,5,1,[0.6950000000001637],[0.6950000000001637],red,green,blue,3,98,1108.1196,1108.9855,0,[],[],1,[1109.190599999994],[1109.190599999994],1108.9859,1112.2226,1.4674,460,TRUE,FALSE,1112.2226,1112.2228,,,,1112.2255,1112.2263,,,,,,0,0,0,0,1,,,,,,,,,,,,,,,,,,,,,,,,,,,,,,,,,,
,,,,,687412b8d619a222cdd0bec9,2026-02-02_12h02.02.816,causal,2025.1.1,Win32,19.96007984,,,,,,,,,,,,,,,,,,,,,,,,,,,,,,,,,,,,,,,,,,,,,,,,,,,,,,,,,,,,,,,,,,,,,,,,,,,,,,,,,,,,,,,,,25,0,25,0,1,,,,,,,,,,,,,,,,,,,,,,,,,,,,,
,,,,,687412b8d619a222cdd0bec9,2026-02-02_12h02.02.816,causal,2025.1.1,Win32,19.96007984,,,,,,,,,,,,,,,,,,,,,,,,,,,,,,,,1112.2264,1113.8736,1113.8736,1113.8738,test,1130.2285,1130.229,1115.3755,1118.8346,blue,stimuli/collisions/hit/stim13.mp4,f,3.114,,TRUE,1118.8384,1125.9773,5,1,[1.3174999999998818],[1.3174999999998818],red,green,blue,94,4,1125.9797,1126.8272,0,[],[],1,[1127.033],[1127.033],1126.8275,1130.2251,0.656,485,TRUE,FALSE,1130.2253,1130.226,,,,1130.2291,1130.2302,,,,,,0,0,0,0,1,,,,,,,,,,,,,,,,,,,,,,,,,,,,,,,,,,
,,,,,687412b8d619a222cdd0bec9,2026-02-02_12h02.02.816,causal,2025.1.1,Win32,19.96007984,,,,,,,,,,,,,,,,,,,,,,,,,,,,,,,,,,,,,,,,,,,,,,,,,,,,,,,,,,,,,,,,,,,,,,,,,,,,,,,,,,,,,,,,,26,0,26,0,1,,,,,,,,,,,,,,,,,,,,,,,,,,,,,
,,,,,687412b8d619a222cdd0bec9,2026-02-02_12h02.02.816,causal,2025.1.1,Win32,19.96007984,,,,,,,,,,,,,,,,,,,,,,,,,,,,,,,,,,,,,,,,,,,,,,,,,,,,,,,,,,,,,,,,,,,,,,,,,,,,,,,,,,,,,,,,,,,,,,1130.2308,1137.6124,,,,,,,,,,,,,,,,,,,,,,,,,,,
,,,,,687412b8d619a222cdd0bec9,2026-02-02_12h02.02.816,causal,2025.1.1,Win32,19.96007984,,,,,,,,,,,,,,,,,,,,,,,,,,,,,,,,,,,,,,,,,,,,,,,,,,,,,,,,,,,,,,,,,,,,,,,,,,,,,,,,,,,,,,,,,,,,,,,,1137.6129,1144.6645,,,,,,,,,,,,,,,,,,,,,,,,,
,,,,,687412b8d619a222cdd0bec9,2026-02-02_12h02.02.816,causal,2025.1.1,Win32,19.96007984,,,,,,,,,,,,,,,,,,,,,,,,,,,,,,,,1144.6672,1146.366,,,,1146.3676,1147.8836,,,,stimuli/collisions/calibration/stim3.mp4,,,,,,,,,,,,,,,,,,,,,,,,,,,,,,,,,,,,,,,,,,,,,,,,,,,,,,,,1146.3669,1146.3675,1147.8845,1152.0118,1152.0197,1154.3687,1,[1154.402],[1154.402],0,[],[],FALSE,FALSE,TRUE,1154.3697,1156.8121,"[""space""]",[1.411099999993894],[null],0,0,0,0,1
,,,,,687412b8d619a222cdd0bec9,2026-02-02_12h02.02.816,causal,2025.1.1,Win32,19.96007984,,,,,,,,,,,,,,,,,,,,,,,,,,,,,,,,1156.815,1158.528,,,,1158.5289,1160.0449,,,,stimuli/collisions/calibration/stim19.mp4,,,,,,,,,,,,,,,,,,,,,,,,,,,,,,,,,,,,,,,,,,,,,,,,,,,,,,,,1158.5285,1158.5288,1160.047,1163.1091,1163.1284,1164.7321,1,[1164.766600000009],[1164.766600000009],0,[],[],FALSE,FALSE,TRUE,1164.7353,1166.6688,"[""space""]",[0.8930999999938649],[null],1,0,1,0,1
,,,,,687412b8d619a222cdd0bec9,2026-02-02_12h02.02.816,causal,2025.1.1,Win32,19.96007984,,,,,,,,,,,,,,,,,,,,,,,,,,,,,,,,1166.6715,1168.1293,,,,1168.1311,1169.6566,,,,stimuli/collisions/calibration/stim8.mp4,,,,,,,,,,,,,,,,,,,,,,,,,,,,,,,,,,,,,,,,,,,,,,,,,,,,,,,,1168.1303,1168.131,1169.6574,1173.1965,1173.2205,1173.8561,0,[],[],1,[1173.8845000000001],[1173.8845000000001],TRUE,FALSE,FALSE,1173.8566,1176.2025,"[""space""]",[1.3255999999939831],[null],2,0,2,0,1
,,,,,687412b8d619a222cdd0bec9,2026-02-02_12h02.02.816,causal,2025.1.1,Win32,19.96007984,,,,,,,,,,,,,,,,,,,,,,,,,,,,,,,,1176.204,1177.2281,,,,1177.2309,1178.75,,,,stimuli/collisions/calibration/stim12.mp4,,,,,,,,,,,,,,,,,,,,,,,,,,,,,,,,,,,,,,,,,,,,,,,,,,,,,,,,1177.2298,1177.2307,1178.7523,1181.5864,1181.6016,1182.9864,0,[],[],1,[1183.0155999999938],[1183.0155999999938],TRUE,FALSE,FALSE,1182.9873,1184.9362,"[""space""]",[0.9307000000030712],[null],3,0,3,0,1
,,,,,687412b8d619a222cdd0bec9,2026-02-02_12h02.02.816,causal,2025.1.1,Win32,19.96007984,,,,,,,,,,,,,,,,,,,,,,,,,,,,,,,,1184.9407,1186.222,,,,1186.2239,1187.7566,,,,stimuli/collisions/calibration/stim10.mp4,,,,,,,,,,,,,,,,,,,,,,,,,,,,,,,,,,,,,,,,,,,,,,,,,,,,,,,,1186.223,1186.2237,1187.7587,1190.5261,1190.5674,1191.2857,0,[],[],1,[1191.314799999997],[1191.3149000000058],TRUE,TRUE,TRUE,1191.2861,1193.037,"[""space""]",[0.715700000003153],[null],4,0,4,0,1
,,,,,687412b8d619a222cdd0bec9,2026-02-02_12h02.02.816,causal,2025.1.1,Win32,19.96007984,,,,,,,,,,,,,,,,,,,,,,,,,,,,,,,,1193.0387,1196.3317,,,,1196.334,1197.8647,,,,stimuli/collisions/calibration/stim2.mp4,,,,,,,,,,,,,,,,,,,,,,,,,,,,,,,,,,,,,,,,,,,,,,,,,,,,,,,,1196.333,1196.3339,1197.8682,1201.5717,1201.5907,1202.5925,1,[1202.6269000000057],[1202.6269000000057],0,[],[],FALSE,TRUE,FALSE,1202.5929,1204.6764,"[""space""]",[1.0577000000027965],[null],5,0,5,0,1
,,,,,687412b8d619a222cdd0bec9,2026-02-02_12h02.02.816,causal,2025.1.1,Win32,19.96007984,,,,,,,,,,,,,,,,,,,,,,,,,,,,,,,,1204.678,1208.3131,,,,1208.3163,1209.8243,,,,stimuli/collisions/calibration/stim18.mp4,,,,,,,,,,,,,,,,,,,,,,,,,,,,,,,,,,,,,,,,,,,,,,,,,,,,,,,,1208.3144,1208.3156,1209.8264,1213.2257,1213.2473,1214.0761,1,[1214.110700000003],[1214.110700000003],0,[],[],FALSE,FALSE,TRUE,1214.0768,1216.3418,"[""space""]",[1.2322000000028765],[null],6,0,6,0,1
,,,,,687412b8d619a222cdd0bec9,2026-02-02_12h02.02.816,causal,2025.1.1,Win32,19.96007984,,,,,,,,,,,,,,,,,,,,,,,,,,,,,,,,1216.3443,1218.7824,,,,1218.7842,1220.2867,,,,stimuli/collisions/calibration/stim20.mp4,,,,,,,,,,,,,,,,,,,,,,,,,,,,,,,,,,,,,,,,,,,,,,,,,,,,,,,,1218.7834,1218.7839,1220.2886,1223.0468,1223.0721,1224.3248,0,[],[],1,[1224.3539999999998],[1224.3539999999998],TRUE,TRUE,TRUE,1224.3254,1226.1412,"[""space""]",[0.7857000000030894],[null],7,0,7,0,1
,,,,,687412b8d619a222cdd0bec9,2026-02-02_12h02.02.816,causal,2025.1.1,Win32,19.96007984,,,,,,,,,,,,,,,,,,,,,,,,,,,,,,,,1226.1426,1229.6989,,,,1229.7029,1231.2633,,,,stimuli/collisions/calibration/stim11.mp4,,,,,,,,,,,,,,,,,,,,,,,,,,,,,,,,,,,,,,,,,,,,,,,,,,,,,,,,1229.6999,1229.7023,1231.2652,1234.1843,1234.2115,1235.4015,0,[],[],1,[1235.430799999997],[1235.430799999997],TRUE,TRUE,TRUE,1235.4025,1237.2134,"[""space""]",[0.7742999999968561],[null],8,0,8,0,1
,,,,,687412b8d619a222cdd0bec9,2026-02-02_12h02.02.816,causal,2025.1.1,Win32,19.96007984,,,,,,,,,,,,,,,,,,,,,,,,,,,,,,,,1237.216,1239.7742,,,,1239.7765,1241.2871,,,,stimuli/collisions/calibration/stim9.mp4,,,,,,,,,,,,,,,,,,,,,,,,,,,,,,,,,,,,,,,,,,,,,,,,,,,,,,,,1239.7756,1239.7764,1241.2892,1244.385,1244.4095,1246.2411,1,[1246.2754999999997],[1246.2754999999997],0,[],[],FALSE,FALSE,TRUE,1246.2416,1248.632,"[""space""]",[1.3673999999909938],[null],9,0,9,0,1
,,,,,687412b8d619a222cdd0bec9,2026-02-02_12h02.02.816,causal,2025.1.1,Win32,19.96007984,,,,,,,,,,,,,,,,,,,,,,,,,,,,,,,,1248.6334,1249.4832,,,,1249.4846,1251.0365,,,,stimuli/collisions/calibration/stim17.mp4,,,,,,,,,,,,,,,,,,,,,,,,,,,,,,,,,,,,,,,,,,,,,,,,,,,,,,,,1249.4839,1249.4845,1251.0383,1254.243,1254.2629,1255.1235,0,[],[],1,[1255.152900000006],[1255.152900000006],TRUE,TRUE,TRUE,1255.1238,1257.101,"[""space""]",[0.9368000000117718],[null],10,0,10,0,1
,,,,,687412b8d619a222cdd0bec9,2026-02-02_12h02.02.816,causal,2025.1.1,Win32,19.96007984,,,,,,,,,,,,,,,,,,,,,,,,,,,,,,,,1257.1028,1259.9635,,,,1259.9658,1261.4795,,,,stimuli/collisions/calibration/stim13.mp4,,,,,,,,,,,,,,,,,,,,,,,,,,,,,,,,,,,,,,,,,,,,,,,,,,,,,,,,1259.9645,1259.9656,1261.4816,1264.4536,1264.4854,1265.4594,1,[1265.4918000000116],[1265.4918000000116],0,[],[],FALSE,FALSE,TRUE,1265.4602,1267.6348,"[""space""]",[1.1343999999910466],[null],11,0,11,0,1
,,,,,687412b8d619a222cdd0bec9,2026-02-02_12h02.02.816,causal,2025.1.1,Win32,19.96007984,,,,,,,,,,,,,,,,,,,,,,,,,,,,,,,,1267.6374,1271.8783,,,,1271.8796,1273.4116,,,,stimuli/collisions/calibration/stim1.mp4,,,,,,,,,,,,,,,,,,,,,,,,,,,,,,,,,,,,,,,,,,,,,,,,,,,,,,,,1271.8789,1271.8794,1273.4147,1276.7382,1276.7683,1279.133,1,[1279.166100000009],[1279.1662000000028],0,[],[],FALSE,FALSE,TRUE,1279.1337,1281.2481,"[""space""]",[1.0692999999969288],[null],12,0,12,0,1
,,,,,687412b8d619a222cdd0bec9,2026-02-02_12h02.02.816,causal,2025.1.1,Win32,19.96007984,,,,,,,,,,,,,,,,,,,,,,,,,,,,,,,,1281.2502,1285.4868,,,,1285.4883,1287.0359,,,,stimuli/collisions/calibration/stim5.mp4,,,,,,,,,,,,,,,,,,,,,,,,,,,,,,,,,,,,,,,,,,,,,,,,,,,,,,,,1285.4874,1285.4881,1287.0381,1291.2005,1291.2455,1292.7749,1,[1292.8094999999998],[1292.8094999999998],0,[],[],FALSE,FALSE,TRUE,1292.7753,1297.3963,"[""space""]",[3.5926000000090426],[null],13,0,13,0,1
,,,,,687412b8d619a222cdd0bec9,2026-02-02_12h02.02.816,causal,2025.1.1,Win32,19.96007984,,,,,,,,,,,,,,,,,,,,,,,,,,,,,,,,1297.3981,1298.8542,,,,1298.8556,1300.4439,,,,stimuli/collisions/calibration/stim16.mp4,,,,,,,,,,,,,,,,,,,,,,,,,,,,,,,,,,,,,,,,,,,,,,,,,,,,,,,,1298.8549,1298.8555,1300.4467,1304.0646,1304.0878,1304.9064,1,[1304.9408000000117],[1304.9408000000117],0,[],[],FALSE,FALSE,TRUE,1304.9067,1306.7559,"[""space""]",[0.8293000000119264],[null],14,0,14,0,1
,,,,,687412b8d619a222cdd0bec9,2026-02-02_12h02.02.816,causal,2025.1.1,Win32,19.96007984,,,,,,,,,,,,,,,,,,,,,,,,,,,,,,,,1306.758,1307.9315,,,,1307.9329,1309.4676,,,,stimuli/collisions/calibration/stim15.mp4,,,,,,,,,,,,,,,,,,,,,,,,,,,,,,,,,,,,,,,,,,,,,,,,,,,,,,,,1307.9321,1307.9327,1309.47,1312.808,1312.827,1320.0305,1,[1320.065300000012],[1320.065300000012],0,[],[],FALSE,TRUE,FALSE,1320.0312,1321.1617,"[""space""]",[0.10949999999979809],[null],15,0,15,0,1
,,,,,687412b8d619a222cdd0bec9,2026-02-02_12h02.02.816,causal,2025.1.1,Win32,19.96007984,,,,,,,,,,,,,,,,,,,,,,,,,,,,,,,,1321.1621,1322.0699,,,,1322.0708,1323.5736,,,,stimuli/collisions/calibration/stim4.mp4,,,,,,,,,,,,,,,,,,,,,,,,,,,,,,,,,,,,,,,,,,,,,,,,,,,,,,,,1322.0703,1322.0706,1323.5745,1326.343,1326.3499,1327.0225,0,[],[],1,[1327.052400000006],[1327.052400000006],TRUE,TRUE,TRUE,1327.0226,1328.5773,"[""space""]",[0.5150000000001],[null],16,0,16,0,1
,,,,,687412b8d619a222cdd0bec9,2026-02-02_12h02.02.816,causal,2025.1.1,Win32,19.96007984,,,,,,,,,,,,,,,,,,,,,,,,,,,,,,,,1328.5779,1329.3944,,,,1329.3951,1330.9032,,,,stimuli/collisions/calibration/stim7.mp4,,,,,,,,,,,,,,,,,,,,,,,,,,,,,,,,,,,,,,,,,,,,,,,,,,,,,,,,1329.3947,1329.3951,1330.904,1333.5697,1333.5798,1335.6035,0,[],[],1,[1335.6327999999971],[1335.632900000006],TRUE,TRUE,TRUE,1335.604,1337.442,"[""space""]",[0.7968000000118991],[null],17,0,17,0,1
,,,,,687412b8d619a222cdd0bec9,2026-02-02_12h02.02.816,causal,2025.1.1,Win32,19.96007984,,,,,,,,,,,,,,,,,,,,,,,,,,,,,,,,1337.4439,1338.8756,,,,1338.877,1340.4115,,,,stimuli/collisions/calibration/stim14.mp4,,,,,,,,,,,,,,,,,,,,,,,,,,,,,,,,,,,,,,,,,,,,,,,,,,,,,,,,1338.8762,1338.8769,1340.4137,1343.8514,1343.8728,1345.4373,0,[],[],1,[1345.4665],[1345.4665999999938],TRUE,FALSE,FALSE,1345.4381,1346.5608,"[""space""]",[0.08560000000875334],[null],18,0,18,0,1
,,,,,687412b8d619a222cdd0bec9,2026-02-02_12h02.02.816,causal,2025.1.1,Win32,19.96007984,,,,,,,,,,,,,,,,,,,,,,,,,,,,,,,,1346.5623,1347.2439,,,,1347.2467,1348.7841,,,,stimuli/collisions/calibration/stim6.mp4,,,,,,,,,,,,,,,,,,,,,,,,,,,,,,,,,,,,,,,,,,,,,,,,,,,,,,,,1347.2458,1347.2465,1348.7867,1351.4579,1351.497,1352.3172,1,[1352.351700000003],[1352.351700000003],0,[],[],FALSE,FALSE,TRUE,1352.3176,1354.1868,"[""space""]",[0.8435999999940123],[null],19,0,19,0,1
