intro.started,intro.stopped,button_6.numClicks,button_6.timesOn,button_6.timesOff,participant,date,expName,psychopyVersion,OS,frameRate,timing_info.started,timing_info.stopped,button_7.numClicks,button_7.timesOn,button_7.timesOff,hand_positions.started,hand_positions.stopped,space_bar.keys,space_bar.rt,space_bar.duration,train_keys.started,train_keys.stopped,key_resp.keys,key_resp.rt,key_resp.duration,score.started,score.stopped,training_rounds,training.thisRepN,training.thisTrialN,training.thisN,training.thisIndex,training.ran,test_instruct.started,test_instruct.stopped,instruct_cont.started,instruct_cont.stopped,point_instruct.started,point_instruct.stopped,accident_instruct.started,accident_instruct.stopped,advance.started,advance.stopped,flip_video.started,flip_video.stopped,trial_type,buffer.started,buffer.stopped,collision.started,collision.stopped,selection,stimuli_path,select_resp.keys,select_resp.rt,select_resp.duration,resp_trial,responsibility.started,responsibility.stopped,conf_2.response,button.numClicks,button.timesOn,button.timesOff,conf_one,conf_two,conf_three,conf_3.response,conf_1.response,forfeit.started,forfeit.stopped,forfeit_button.numClicks,forfeit_button.timesOn,forfeit_button.timesOff,keep_button.numClicks,keep_button.timesOn,keep_button.timesOff,accuracy.started,accuracy.stopped,rt_diff,acc_points,keep_round,practice_round,begin_review.started,begin_review.stopped,space_bar_6.keys,space_bar_6.rt,space_bar_6.duration,review_keys.started,review_keys.stopped,key_resp_2.keys,key_resp_2.rt,key_resp_2.duration,review_trials,baseline_rts,review.thisRepN,review.thisTrialN,review.thisN,review.thisIndex,review.ran,trials.thisRepN,trials.thisTrialN,trials.thisN,trials.thisIndex,trials.ran,transition.started,transition.stopped,calibrate_instruct.started,calibrate_instruct.stopped,flip_calibration.started,flip_calibration.stopped,calibrate.started,calibrate.stopped,prediction.started,prediction.stopped,miss.numClicks,miss.timesOn,miss.timesOff,hit.numClicks,hit.timesOn,hit.timesOff,calibration_pred,calibration_actual,calibration_score,cal_feedback.started,cal_feedback.stopped,space_bar_12.keys,space_bar_12.rt,space_bar_12.duration,calibration.thisRepN,calibration.thisTrialN,calibration.thisN,calibration.thisIndex,calibration.ran
0.0002,6.8568,1,[1.860400000000375],[1.860400000000375],695fe9333c8cab21d74e20ff,2026-02-02_14h33.26.323,causal,2025.1.1,Win32,238.0952381,,,,,,,,,,,,,,,,,,,,,,,,,,,,,,,,,,,,,,,,,,,,,,,,,,,,,,,,,,,,,,,,,,,,,,,,,,,,,,,,,,,,,,,,,,,,,,,,,,,,,,,,,,,,,,,,,,,,,,,,,,
,,,,,695fe9333c8cab21d74e20ff,2026-02-02_14h33.26.323,causal,2025.1.1,Win32,238.0952381,6.8568,15.2901,1,[3.4368000000007477],[3.4368000000007477],,,,,,,,,,,,,,,,,,,,,,,,,,,,,,,,,,,,,,,,,,,,,,,,,,,,,,,,,,,,,,,,,,,,,,,,,,,,,,,,,,,,,,,,,,,,,,,,,,,,,,,,,,,,,,,,,,,,,
,,,,,695fe9333c8cab21d74e20ff,2026-02-02_14h33.26.323,causal,2025.1.1,Win32,238.0952381,,,,,,15.2902,38.5311,"[""space"",""space""]","[3.801700000001123,20.221999999999998]","[null,null]",,,,,,,,,,,,,,,,,,,,,,,,,,,,,,,,,,,,,,,,,,,,,,,,,,,,,,,,,,,,,,,,,,,,,,,,,,,,,,,,,,,,,,,,,,,,,,,,,,,,,,,,,,,,,,,,
,,,,,695fe9333c8cab21d74e20ff,2026-02-02_14h33.26.323,causal,2025.1.1,Win32,238.0952381,,,,,,,,,,,95.2163,96.0363,space,0.4947,,96.0365,100.0779,1,0,0,0,0,1,,,,,,,,,,,,,,,,,,,,,,,,,,,,,,,,,,,,,,,,,,,,,,,,,,,,,,,,,,,,,,,,,,,,,,,,,,,,,,,,,,,,,,,,,,,,,,,,,,,
,,,,,695fe9333c8cab21d74e20ff,2026-02-02_14h33.26.323,causal,2025.1.1,Win32,238.0952381,,,,,,,,,,,,,,,,,,,,,,,,100.0782,107.2224,,,,,,,,,,,,,,,,,,,,,,,,,,,,,,,,,,,,,,,,,,,,,,,,,,,,,,,,,,,,,,,,,,,,,,,,,,,,,,,,,,,,,,,,,,,,,,,,,
,,,,,695fe9333c8cab21d74e20ff,2026-02-02_14h33.26.323,causal,2025.1.1,Win32,238.0952381,,,,,,,,,,,,,,,,,,,,,,,,,,107.2225,114.9927,,,,,,,,,,,,,,,,,,,,,,,,,,,,,,,,,,,,,,,,,,,,,,,,,,,,,,,,,,,,,,,,,,,,,,,,,,,,,,,,,,,,,,,,,,,,,,,
,,,,,695fe9333c8cab21d74e20ff,2026-02-02_14h33.26.323,causal,2025.1.1,Win32,238.0952381,,,,,,,,,,,,,,,,,,,,,,,,,,,,114.9927,139.8755,,,,,,,,,,,,,,,,,,,,,,,,,,,,,,,,,,,,,,,,,,,,,,,,,,,,,,,,,,,,,,,,,,,,,,,,,,,,,,,,,,,,,,,,,,,,,
,,,,,695fe9333c8cab21d74e20ff,2026-02-02_14h33.26.323,causal,2025.1.1,Win32,238.0952381,,,,,,,,,,,,,,,,,,,,,,,,,,,,,,139.8756,144.4842,,,,,,,,,,,,,,,,,,,,,,,,,,,,,,,,,,,,,,,,,,,,,,,,,,,,,,,,,,,,,,,,,,,,,,,,,,,,,,,,,,,,,,,,,,,
,,,,,695fe9333c8cab21d74e20ff,2026-02-02_14h33.26.323,causal,2025.1.1,Win32,238.0952381,,,,,,,,,,,,,,,,,,,,,,,,,,,,,,,,144.485,145.7146,145.7147,145.7147,train,178.7238,179.7273,147.2165,150.8826,miss,stimuli/collisions/training/stim2.mp4,space,3.3482,,TRUE,150.8831,150.8941,,0,[],[],red,green,blue,,,150.8942,154.1313,0,[],[],1,[154.139],[154.139],154.1314,158.5204,0.6518,25,TRUE,TRUE,158.5205,161.451,"[""space""]",[0.9216999999992765],[null],179.7273,180.478,space,0.4245,,9,"[1.36,0.45,0.46,0.61,0.46,0.54,0.51,0.57,0.44,0.42]",9,0,9,0,1,,,,,,,,,,,,,,,,,,,,,,,,,,,,,,,,,,
,,,,,695fe9333c8cab21d74e20ff,2026-02-02_14h33.26.323,causal,2025.1.1,Win32,238.0952381,,,,,,,,,,,,,,,,,,,,,,,,,,,,,,,,,,,,,,,,,,,,,,,,,,,,,,,,,,,,,,,,,,,,,,,,,,,,,,,,,,,,,,,,,0,0,0,0,1,,,,,,,,,,,,,,,,,,,,,,,,,,,,,
,,,,,695fe9333c8cab21d74e20ff,2026-02-02_14h33.26.323,causal,2025.1.1,Win32,238.0952381,,,,,,,,,,,,,,,,,,,,,,,,,,,,,,,,180.4783,181.4165,181.4165,181.4165,train,208.2268,208.2269,182.9181,186.2629,green,stimuli/collisions/training/stim3.mp4,k,3.028,,TRUE,186.2632,199.9474,100,1,[1.6183999999985303],[1.6183999999985303],red,green,blue,0,0,199.948,201.4321,0,[],[],1,[201.43980000000076],[201.43980000000076],201.4322,208.2262,0.242,45,TRUE,FALSE,208.2262,208.2263,,,,208.2269,208.2272,,,,,,0,0,0,0,1,,,,,,,,,,,,,,,,,,,,,,,,,,,,,,,,,,
,,,,,695fe9333c8cab21d74e20ff,2026-02-02_14h33.26.323,causal,2025.1.1,Win32,238.0952381,,,,,,,,,,,,,,,,,,,,,,,,,,,,,,,,,,,,,,,,,,,,,,,,,,,,,,,,,,,,,,,,,,,,,,,,,,,,,,,,,,,,,,,,,1,0,1,0,1,,,,,,,,,,,,,,,,,,,,,,,,,,,,,
,,,,,695fe9333c8cab21d74e20ff,2026-02-02_14h33.26.323,causal,2025.1.1,Win32,238.0952381,,,,,,,,,,,,,,,,,,,,,,,,,,,,,,,,208.2272,209.198,209.198,209.198,train,228.9764,228.9764,210.6996,214.3239,red,stimuli/collisions/training/stim1.mp4,j,3.3094,,TRUE,214.3245,223.8209,0,1,[3.5266999999992663],[3.5266999999992663],red,green,blue,0,100,223.8215,224.8903,0,[],[],1,[224.898],[224.898],224.8903,228.9759,0.8306,70,TRUE,FALSE,228.976,228.976,,,,228.9764,228.9766,,,,,,0,0,0,0,1,,,,,,,,,,,,,,,,,,,,,,,,,,,,,,,,,,
,,,,,695fe9333c8cab21d74e20ff,2026-02-02_14h33.26.323,causal,2025.1.1,Win32,238.0952381,,,,,,,,,,,,,,,,,,,,,,,,,,,,,,,,,,,,,,,,,,,,,,,,,,,,,,,,,,,,,,,,,,,,,,,,,,,,,,,,,,,,,,,,,2,0,2,0,1,,,,,,,,,,,,,,,,,,,,,,,,,,,,,
,,,,,695fe9333c8cab21d74e20ff,2026-02-02_14h33.26.323,causal,2025.1.1,Win32,238.0952381,,,,,,,,,,,,,,,,,,,,,,,,,,,,,,,,228.9766,230.7359,230.736,230.736,test,244.3872,244.3873,232.2375,235.2528,green,stimuli/collisions/hit/stim3.mp4,k,2.6984,,TRUE,235.2536,240.6208,100,1,[1.15949999999998],[1.15949999999998],red,green,blue,0,0,240.6214,241.5341,0,[],[],1,[241.54180000000076],[241.5419000000004],241.5343,244.3869,0.6416,95,TRUE,FALSE,244.3869,244.3869,,,,244.3874,244.3874,,,,,,0,0,0,0,1,,,,,,,,,,,,,,,,,,,,,,,,,,,,,,,,,,
,,,,,695fe9333c8cab21d74e20ff,2026-02-02_14h33.26.323,causal,2025.1.1,Win32,238.0952381,,,,,,,,,,,,,,,,,,,,,,,,,,,,,,,,,,,,,,,,,,,,,,,,,,,,,,,,,,,,,,,,,,,,,,,,,,,,,,,,,,,,,,,,,3,0,3,0,1,,,,,,,,,,,,,,,,,,,,,,,,,,,,,
,,,,,695fe9333c8cab21d74e20ff,2026-02-02_14h33.26.323,causal,2025.1.1,Win32,238.0952381,,,,,,,,,,,,,,,,,,,,,,,,,,,,,,,,244.3875,246.1511,246.1512,246.1512,test,263.7564,263.7565,247.6527,251.5064,green,stimuli/collisions/hit/stim12.mp4,k,3.5369,,TRUE,251.5072,258.3508,100,1,[3.4284000000003516],[3.4284000000003516],red,green,blue,0,0,258.3515,259.2516,0,[],[],1,[259.25930000000074],[259.25930000000074],259.2517,263.756,0.5731,120,TRUE,FALSE,263.7561,263.7561,,,,263.7565,263.7565,,,,,,0,0,0,0,1,,,,,,,,,,,,,,,,,,,,,,,,,,,,,,,,,,
,,,,,695fe9333c8cab21d74e20ff,2026-02-02_14h33.26.323,causal,2025.1.1,Win32,238.0952381,,,,,,,,,,,,,,,,,,,,,,,,,,,,,,,,,,,,,,,,,,,,,,,,,,,,,,,,,,,,,,,,,,,,,,,,,,,,,,,,,,,,,,,,,4,0,4,0,1,,,,,,,,,,,,,,,,,,,,,,,,,,,,,
,,,,,695fe9333c8cab21d74e20ff,2026-02-02_14h33.26.323,causal,2025.1.1,Win32,238.0952381,,,,,,,,,,,,,,,,,,,,,,,,,,,,,,,,263.7567,265.5661,265.5661,265.5662,test,281.0694,281.0694,267.0678,269.8829,red,stimuli/collisions/hit/stim14.mp4,j,2.5005,,TRUE,269.8837,275.6554,0,1,[1.3096999999992818],[1.3096999999992818],red,green,blue,0,100,275.656,277.0415,0,[],[],1,[277.04930000000076],[277.04930000000076],277.0416,281.069,0.4395,145,TRUE,FALSE,281.069,281.0691,,,,281.0695,281.0697,,,,,,0,0,0,0,1,,,,,,,,,,,,,,,,,,,,,,,,,,,,,,,,,,
,,,,,695fe9333c8cab21d74e20ff,2026-02-02_14h33.26.323,causal,2025.1.1,Win32,238.0952381,,,,,,,,,,,,,,,,,,,,,,,,,,,,,,,,,,,,,,,,,,,,,,,,,,,,,,,,,,,,,,,,,,,,,,,,,,,,,,,,,,,,,,,,,5,0,5,0,1,,,,,,,,,,,,,,,,,,,,,,,,,,,,,
,,,,,695fe9333c8cab21d74e20ff,2026-02-02_14h33.26.323,causal,2025.1.1,Win32,238.0952381,,,,,,,,,,,,,,,,,,,,,,,,,,,,,,,,281.0697,282.3368,282.3368,282.3368,test,299.0539,299.0539,283.8385,287.2833,red,stimuli/collisions/hit/stim5.mp4,j,3.1338,,TRUE,287.284,294.6616,0,1,[3.76630000000074],[3.76630000000074],red,green,blue,0,100,294.6621,295.6417,0,[],[],1,[295.6495],[295.6495],295.6417,299.0534,0.8062,170,TRUE,FALSE,299.0534,299.0535,,,,299.054,299.0541,,,,,,0,0,0,0,1,,,,,,,,,,,,,,,,,,,,,,,,,,,,,,,,,,
,,,,,695fe9333c8cab21d74e20ff,2026-02-02_14h33.26.323,causal,2025.1.1,Win32,238.0952381,,,,,,,,,,,,,,,,,,,,,,,,,,,,,,,,,,,,,,,,,,,,,,,,,,,,,,,,,,,,,,,,,,,,,,,,,,,,,,,,,,,,,,,,,6,0,6,0,1,,,,,,,,,,,,,,,,,,,,,,,,,,,,,
,,,,,695fe9333c8cab21d74e20ff,2026-02-02_14h33.26.323,causal,2025.1.1,Win32,238.0952381,,,,,,,,,,,,,,,,,,,,,,,,,,,,,,,,299.0541,300.3838,300.3839,300.3839,catch,311.2491,311.2491,301.8854,305.3446,miss,stimuli/collisions/miss/stim3.mp4,space,3.1474,,TRUE,305.3453,305.3468,,0,[],[],red,green,blue,,,305.3471,307.8412,0,[],[],1,[307.849],[307.849],307.8413,311.2487,0.8526,195,TRUE,FALSE,311.2487,311.2488,,,,311.2491,311.2494,,,,,,0,0,0,0,1,,,,,,,,,,,,,,,,,,,,,,,,,,,,,,,,,,
,,,,,695fe9333c8cab21d74e20ff,2026-02-02_14h33.26.323,causal,2025.1.1,Win32,238.0952381,,,,,,,,,,,,,,,,,,,,,,,,,,,,,,,,,,,,,,,,,,,,,,,,,,,,,,,,,,,,,,,,,,,,,,,,,,,,,,,,,,,,,,,,,7,0,7,0,1,,,,,,,,,,,,,,,,,,,,,,,,,,,,,
,,,,,695fe9333c8cab21d74e20ff,2026-02-02_14h33.26.323,causal,2025.1.1,Win32,238.0952381,,,,,,,,,,,,,,,,,,,,,,,,,,,,,,,,311.2495,312.5917,312.5917,312.5918,catch,343.0176,344.0185,314.0933,317.6968,miss,stimuli/collisions/miss/stim4.mp4,space,3.2867,,TRUE,317.6974,317.6991,,0,[],[],red,green,blue,,,317.6993,320.5371,0,[],[],1,[320.54480000000075],[320.54480000000075],320.5372,323.2188,0.7133,220,TRUE,TRUE,323.2188,325.2875,"[""space""]",[0.061599999999657484],[null],344.0186,344.8486,j,0.5162,,9,"[0.73,0.41,0.54,0.44,0.46,0.48,0.7,0.55,0.52]",9,0,9,0,1,,,,,,,,,,,,,,,,,,,,,,,,,,,,,,,,,,
,,,,,695fe9333c8cab21d74e20ff,2026-02-02_14h33.26.323,causal,2025.1.1,Win32,238.0952381,,,,,,,,,,,,,,,,,,,,,,,,,,,,,,,,,,,,,,,,,,,,,,,,,,,,,,,,,,,,,,,,,,,,,,,,,,,,,,,,,,,,,,,,,8,0,8,0,1,,,,,,,,,,,,,,,,,,,,,,,,,,,,,
,,,,,695fe9333c8cab21d74e20ff,2026-02-02_14h33.26.323,causal,2025.1.1,Win32,238.0952381,,,,,,,,,,,,,,,,,,,,,,,,,,,,,,,,344.8487,345.9163,345.9163,345.9163,catch,358.4331,358.4331,347.418,352.3101,miss,stimuli/collisions/miss/stim6.mp4,space,4.5774,,TRUE,352.3109,352.3122,,0,[],[],red,green,blue,,,352.3125,354.0868,0,[],[],1,[354.0945],[354.0945],354.0869,358.4328,-0.5774,240,TRUE,FALSE,358.4328,358.4328,,,,358.4331,358.4334,,,,,,0,0,0,0,1,,,,,,,,,,,,,,,,,,,,,,,,,,,,,,,,,,
,,,,,695fe9333c8cab21d74e20ff,2026-02-02_14h33.26.323,causal,2025.1.1,Win32,238.0952381,,,,,,,,,,,,,,,,,,,,,,,,,,,,,,,,,,,,,,,,,,,,,,,,,,,,,,,,,,,,,,,,,,,,,,,,,,,,,,,,,,,,,,,,,9,0,9,0,1,,,,,,,,,,,,,,,,,,,,,,,,,,,,,
,,,,,695fe9333c8cab21d74e20ff,2026-02-02_14h33.26.323,causal,2025.1.1,Win32,238.0952381,,,,,,,,,,,,,,,,,,,,,,,,,,,,,,,,358.4334,359.4755,359.4755,359.4755,test,374.4781,374.4782,360.9771,363.884,red,stimuli/collisions/hit/stim1.mp4,j,2.5943,,TRUE,363.8847,370.3906,0,1,[1.8308000000007496],[1.8308000000007496],red,green,blue,0,100,370.391,371.212,0,[],[],1,[371.21980000000076],[371.21980000000076],371.2122,374.4778,0.7757,265,TRUE,FALSE,374.4778,374.4778,,,,374.4782,374.4784,,,,,,0,0,0,0,1,,,,,,,,,,,,,,,,,,,,,,,,,,,,,,,,,,
,,,,,695fe9333c8cab21d74e20ff,2026-02-02_14h33.26.323,causal,2025.1.1,Win32,238.0952381,,,,,,,,,,,,,,,,,,,,,,,,,,,,,,,,,,,,,,,,,,,,,,,,,,,,,,,,,,,,,,,,,,,,,,,,,,,,,,,,,,,,,,,,,10,0,10,0,1,,,,,,,,,,,,,,,,,,,,,,,,,,,,,
,,,,,695fe9333c8cab21d74e20ff,2026-02-02_14h33.26.323,causal,2025.1.1,Win32,238.0952381,,,,,,,,,,,,,,,,,,,,,,,,,,,,,,,,374.4784,375.1285,375.1285,375.1285,test,388.8297,388.8298,376.63,380.417,red,stimuli/collisions/hit/stim17.mp4,j,3.4706,,TRUE,380.4177,385.4971,0,1,[0.7215000000000487],[0.7215000000000487],red,green,blue,0,100,385.4976,386.2562,0,[],[],1,[386.26380000000074],[386.26380000000074],386.2562,388.8295,0.8394,290,TRUE,FALSE,388.8295,388.8295,,,,388.8298,388.83,,,,,,0,0,0,0,1,,,,,,,,,,,,,,,,,,,,,,,,,,,,,,,,,,
,,,,,695fe9333c8cab21d74e20ff,2026-02-02_14h33.26.323,causal,2025.1.1,Win32,238.0952381,,,,,,,,,,,,,,,,,,,,,,,,,,,,,,,,,,,,,,,,,,,,,,,,,,,,,,,,,,,,,,,,,,,,,,,,,,,,,,,,,,,,,,,,,11,0,11,0,1,,,,,,,,,,,,,,,,,,,,,,,,,,,,,
,,,,,695fe9333c8cab21d74e20ff,2026-02-02_14h33.26.323,causal,2025.1.1,Win32,238.0952381,,,,,,,,,,,,,,,,,,,,,,,,,,,,,,,,388.8301,389.6636,389.6637,389.6637,test,401.8427,401.8427,391.1652,394.4057,blue,stimuli/collisions/hit/stim8.mp4,f,2.9255,,TRUE,394.4064,398.2431,0,1,[0.6298000000007278],[0.6298000000007278],red,green,blue,100,0,398.2436,399.0604,0,[],[],1,[399.0680999999996],[399.0680999999996],399.0605,401.8422,0.4145,315,TRUE,FALSE,401.8423,401.8424,,,,401.8427,401.8429,,,,,,0,0,0,0,1,,,,,,,,,,,,,,,,,,,,,,,,,,,,,,,,,,
,,,,,695fe9333c8cab21d74e20ff,2026-02-02_14h33.26.323,causal,2025.1.1,Win32,238.0952381,,,,,,,,,,,,,,,,,,,,,,,,,,,,,,,,,,,,,,,,,,,,,,,,,,,,,,,,,,,,,,,,,,,,,,,,,,,,,,,,,,,,,,,,,12,0,12,0,1,,,,,,,,,,,,,,,,,,,,,,,,,,,,,
,,,,,695fe9333c8cab21d74e20ff,2026-02-02_14h33.26.323,causal,2025.1.1,Win32,238.0952381,,,,,,,,,,,,,,,,,,,,,,,,,,,,,,,,401.843,403.3354,403.3354,403.3355,catch,415.7647,415.7648,404.837,410.6551,miss,stimuli/collisions/miss/stim1.mp4,space,5.5063,,TRUE,410.6558,410.6572,,0,[],[],red,green,blue,,,410.6575,412.4167,0,[],[],1,[412.4244000000004],[412.4244000000004],412.4168,415.7643,-1.5063,335,TRUE,FALSE,415.7643,415.7644,,,,415.7648,415.7648,,,,,,0,0,0,0,1,,,,,,,,,,,,,,,,,,,,,,,,,,,,,,,,,,
,,,,,695fe9333c8cab21d74e20ff,2026-02-02_14h33.26.323,causal,2025.1.1,Win32,238.0952381,,,,,,,,,,,,,,,,,,,,,,,,,,,,,,,,,,,,,,,,,,,,,,,,,,,,,,,,,,,,,,,,,,,,,,,,,,,,,,,,,,,,,,,,,13,0,13,0,1,,,,,,,,,,,,,,,,,,,,,,,,,,,,,
,,,,,695fe9333c8cab21d74e20ff,2026-02-02_14h33.26.323,causal,2025.1.1,Win32,238.0952381,,,,,,,,,,,,,,,,,,,,,,,,,,,,,,,,415.7649,416.4443,416.4443,416.4443,test,429.4949,429.495,417.9458,421.4157,blue,stimuli/collisions/hit/stim4.mp4,f,3.1533,,TRUE,421.4165,425.741,0,1,[0.8672999999988633],[0.8672999999988633],red,green,blue,100,0,425.7414,426.4457,0,[],[],1,[426.4534000000004],[426.4534000000004],426.4458,429.4946,0.8567,360,TRUE,FALSE,429.4946,429.4946,,,,429.495,429.4951,,,,,,0,0,0,0,1,,,,,,,,,,,,,,,,,,,,,,,,,,,,,,,,,,
,,,,,695fe9333c8cab21d74e20ff,2026-02-02_14h33.26.323,causal,2025.1.1,Win32,238.0952381,,,,,,,,,,,,,,,,,,,,,,,,,,,,,,,,,,,,,,,,,,,,,,,,,,,,,,,,,,,,,,,,,,,,,,,,,,,,,,,,,,,,,,,,,14,0,14,0,1,,,,,,,,,,,,,,,,,,,,,,,,,,,,,
,,,,,695fe9333c8cab21d74e20ff,2026-02-02_14h33.26.323,causal,2025.1.1,Win32,238.0952381,,,,,,,,,,,,,,,,,,,,,,,,,,,,,,,,429.4952,430.2912,430.2912,430.2912,test,442.8915,442.8915,431.7929,435.4296,blue,stimuli/collisions/hit/stim2.mp4,f,3.3219,,TRUE,435.4305,439.2043,0,1,[0.6881999999992559],[0.6881999999992559],red,green,blue,100,0,439.2047,439.9508,0,[],[],1,[439.9585],[439.9585],439.9509,442.8911,0.5881,385,TRUE,FALSE,442.8911,442.8911,,,,442.8915,442.8917,,,,,,0,0,0,0,1,,,,,,,,,,,,,,,,,,,,,,,,,,,,,,,,,,
,,,,,695fe9333c8cab21d74e20ff,2026-02-02_14h33.26.323,causal,2025.1.1,Win32,238.0952381,,,,,,,,,,,,,,,,,,,,,,,,,,,,,,,,,,,,,,,,,,,,,,,,,,,,,,,,,,,,,,,,,,,,,,,,,,,,,,,,,,,,,,,,,15,0,15,0,1,,,,,,,,,,,,,,,,,,,,,,,,,,,,,
,,,,,695fe9333c8cab21d74e20ff,2026-02-02_14h33.26.323,causal,2025.1.1,Win32,238.0952381,,,,,,,,,,,,,,,,,,,,,,,,,,,,,,,,442.8917,443.742,443.742,443.742,test,478.0509,479.0518,445.2434,448.7762,blue,stimuli/collisions/hit/stim13.mp4,f,3.2148,,TRUE,448.7768,453.9022,0,1,[0.6883000000007655],[0.6883000000007655],red,green,blue,100,0,453.9028,454.7044,0,[],[],1,[454.7120999999996],[454.7120999999996],454.7045,457.1635,0.5552,410,TRUE,TRUE,457.1636,462.2979,"[""space""]",[3.127900000000352],[null],479.0518,479.8152,j,0.4503,,9,"[0.5,0.43,0.43,0.34,0.49,0.42,0.39,0.44,0.46,0.45]",9,0,9,0,1,,,,,,,,,,,,,,,,,,,,,,,,,,,,,,,,,,
,,,,,695fe9333c8cab21d74e20ff,2026-02-02_14h33.26.323,causal,2025.1.1,Win32,238.0952381,,,,,,,,,,,,,,,,,,,,,,,,,,,,,,,,,,,,,,,,,,,,,,,,,,,,,,,,,,,,,,,,,,,,,,,,,,,,,,,,,,,,,,,,,16,0,16,0,1,,,,,,,,,,,,,,,,,,,,,,,,,,,,,
,,,,,695fe9333c8cab21d74e20ff,2026-02-02_14h33.26.323,causal,2025.1.1,Win32,238.0952381,,,,,,,,,,,,,,,,,,,,,,,,,,,,,,,,479.8153,480.6451,480.6451,480.6451,test,492.186,492.1861,482.1466,485.4915,blue,stimuli/collisions/hit/stim18.mp4,f,3.0276,,TRUE,485.4922,489.0743,0,1,[0.5839000000003693],[0.5839000000003693],red,green,blue,100,0,489.0748,489.6748,0,[],[],1,[489.68259999999964],[489.68259999999964],489.6749,492.1857,0.1124,430,TRUE,FALSE,492.1857,492.1857,,,,492.1861,492.1862,,,,,,0,0,0,0,1,,,,,,,,,,,,,,,,,,,,,,,,,,,,,,,,,,
,,,,,695fe9333c8cab21d74e20ff,2026-02-02_14h33.26.323,causal,2025.1.1,Win32,238.0952381,,,,,,,,,,,,,,,,,,,,,,,,,,,,,,,,,,,,,,,,,,,,,,,,,,,,,,,,,,,,,,,,,,,,,,,,,,,,,,,,,,,,,,,,,17,0,17,0,1,,,,,,,,,,,,,,,,,,,,,,,,,,,,,
,,,,,695fe9333c8cab21d74e20ff,2026-02-02_14h33.26.323,causal,2025.1.1,Win32,238.0952381,,,,,,,,,,,,,,,,,,,,,,,,,,,,,,,,492.1863,493.3452,493.3452,493.3452,test,504.8401,504.8402,494.8468,497.6868,blue,stimuli/collisions/hit/stim16.mp4,f,2.5235,,TRUE,497.6875,501.5366,0,1,[0.6172000000010485],[0.6172000000010485],red,green,blue,100,0,501.537,502.1872,0,[],[],1,[502.1949000000005],[502.1949000000005],502.1872,504.8398,0.2865,450,TRUE,FALSE,504.8398,504.8399,,,,504.8403,504.8404,,,,,,0,0,0,0,1,,,,,,,,,,,,,,,,,,,,,,,,,,,,,,,,,,
,,,,,695fe9333c8cab21d74e20ff,2026-02-02_14h33.26.323,causal,2025.1.1,Win32,238.0952381,,,,,,,,,,,,,,,,,,,,,,,,,,,,,,,,,,,,,,,,,,,,,,,,,,,,,,,,,,,,,,,,,,,,,,,,,,,,,,,,,,,,,,,,,18,0,18,0,1,,,,,,,,,,,,,,,,,,,,,,,,,,,,,
,,,,,695fe9333c8cab21d74e20ff,2026-02-02_14h33.26.323,causal,2025.1.1,Win32,238.0952381,,,,,,,,,,,,,,,,,,,,,,,,,,,,,,,,504.8404,505.4112,505.4112,505.4112,catch,515.3964,515.3965,506.9129,510.4912,miss,stimuli/collisions/miss/stim5.mp4,space,3.2606,,TRUE,510.4918,510.4933,,0,[],[],red,green,blue,,,510.4936,512.3222,0,[],[],1,[512.3299000000004],[512.3299000000004],512.3223,515.396,0.7394,475,TRUE,FALSE,515.396,515.396,,,,515.3965,515.3967,,,,,,0,0,0,0,1,,,,,,,,,,,,,,,,,,,,,,,,,,,,,,,,,,
,,,,,695fe9333c8cab21d74e20ff,2026-02-02_14h33.26.323,causal,2025.1.1,Win32,238.0952381,,,,,,,,,,,,,,,,,,,,,,,,,,,,,,,,,,,,,,,,,,,,,,,,,,,,,,,,,,,,,,,,,,,,,,,,,,,,,,,,,,,,,,,,,19,0,19,0,1,,,,,,,,,,,,,,,,,,,,,,,,,,,,,
,,,,,695fe9333c8cab21d74e20ff,2026-02-02_14h33.26.323,causal,2025.1.1,Win32,238.0952381,,,,,,,,,,,,,,,,,,,,,,,,,,,,,,,,515.3968,516.1342,516.1342,516.1342,test,527.5875,527.5876,517.6359,521.1016,red,stimuli/collisions/hit/stim11.mp4,j,3.149,,TRUE,521.1022,524.7678,0,1,[0.5254999999999654],[0.5254999999999654],red,green,blue,0,100,524.7683,525.4518,0,[],[],1,[525.4595],[525.4595],525.452,527.5872,0.421,500,TRUE,FALSE,527.5872,527.5873,,,,527.5876,527.5878,,,,,,0,0,0,0,1,,,,,,,,,,,,,,,,,,,,,,,,,,,,,,,,,,
,,,,,695fe9333c8cab21d74e20ff,2026-02-02_14h33.26.323,causal,2025.1.1,Win32,238.0952381,,,,,,,,,,,,,,,,,,,,,,,,,,,,,,,,,,,,,,,,,,,,,,,,,,,,,,,,,,,,,,,,,,,,,,,,,,,,,,,,,,,,,,,,,20,0,20,0,1,,,,,,,,,,,,,,,,,,,,,,,,,,,,,
,,,,,695fe9333c8cab21d74e20ff,2026-02-02_14h33.26.323,causal,2025.1.1,Win32,238.0952381,,,,,,,,,,,,,,,,,,,,,,,,,,,,,,,,527.5878,528.3839,528.3839,528.3839,test,539.3909,539.3909,529.8854,532.8841,red,stimuli/collisions/hit/stim9.mp4,j,2.6833,,TRUE,532.8848,536.3251,0,1,[0.47100000000000364],[0.47100000000000364],red,green,blue,0,100,536.3257,536.8256,0,[],[],1,[536.8332000000012],[536.8332000000012],536.8257,539.3905,0.2867,520,TRUE,FALSE,539.3905,539.3905,,,,539.3909,539.3911,,,,,,0,0,0,0,1,,,,,,,,,,,,,,,,,,,,,,,,,,,,,,,,,,
,,,,,695fe9333c8cab21d74e20ff,2026-02-02_14h33.26.323,causal,2025.1.1,Win32,238.0952381,,,,,,,,,,,,,,,,,,,,,,,,,,,,,,,,,,,,,,,,,,,,,,,,,,,,,,,,,,,,,,,,,,,,,,,,,,,,,,,,,,,,,,,,,21,0,21,0,1,,,,,,,,,,,,,,,,,,,,,,,,,,,,,
,,,,,695fe9333c8cab21d74e20ff,2026-02-02_14h33.26.323,causal,2025.1.1,Win32,238.0952381,,,,,,,,,,,,,,,,,,,,,,,,,,,,,,,,539.3912,539.9244,539.9244,539.9244,test,552.0574,552.0576,541.426,543.9367,red,stimuli/collisions/hit/stim6.mp4,j,2.194,,TRUE,543.9373,548.5331,0,1,[0.569599999999582],[0.569599999999582],red,green,blue,0,100,548.5335,549.2754,0,[],[],1,[549.2830999999996],[549.2830999999996],549.2756,552.0572,1.046,545,TRUE,FALSE,552.0572,552.0572,,,,552.0576,552.0577,,,,,,0,0,0,0,1,,,,,,,,,,,,,,,,,,,,,,,,,,,,,,,,,,
,,,,,695fe9333c8cab21d74e20ff,2026-02-02_14h33.26.323,causal,2025.1.1,Win32,238.0952381,,,,,,,,,,,,,,,,,,,,,,,,,,,,,,,,,,,,,,,,,,,,,,,,,,,,,,,,,,,,,,,,,,,,,,,,,,,,,,,,,,,,,,,,,22,0,22,0,1,,,,,,,,,,,,,,,,,,,,,,,,,,,,,
,,,,,695fe9333c8cab21d74e20ff,2026-02-02_14h33.26.323,causal,2025.1.1,Win32,238.0952381,,,,,,,,,,,,,,,,,,,,,,,,,,,,,,,,552.0578,554.1759,554.1759,554.1759,test,566.6928,566.6929,555.6775,559.502,green,stimuli/collisions/hit/stim10.mp4,k,3.5076,,TRUE,559.5027,563.2433,100,1,[0.5295999999996184],[0.5295999999996184],red,green,blue,0,0,563.2438,563.8651,0,[],[],1,[563.8728000000008],[563.8728000000008],563.8652,566.6925,0.7324,570,TRUE,FALSE,566.6925,566.6925,,,,566.6929,566.6931,,,,,,0,0,0,0,1,,,,,,,,,,,,,,,,,,,,,,,,,,,,,,,,,,
,,,,,695fe9333c8cab21d74e20ff,2026-02-02_14h33.26.323,causal,2025.1.1,Win32,238.0952381,,,,,,,,,,,,,,,,,,,,,,,,,,,,,,,,,,,,,,,,,,,,,,,,,,,,,,,,,,,,,,,,,,,,,,,,,,,,,,,,,,,,,,,,,23,0,23,0,1,,,,,,,,,,,,,,,,,,,,,,,,,,,,,
,,,,,695fe9333c8cab21d74e20ff,2026-02-02_14h33.26.323,causal,2025.1.1,Win32,238.0952381,,,,,,,,,,,,,,,,,,,,,,,,,,,,,,,,566.6932,567.1721,567.1722,567.1722,test,598.5406,599.5416,568.6738,571.6849,green,stimuli/collisions/hit/stim7.mp4,k,2.6962,,TRUE,571.6855,575.4929,100,1,[0.984399999998459],[0.984399999998459],red,green,blue,0,0,575.4935,576.1269,0,[],[],1,[576.1345999999996],[576.1345999999996],576.1269,579.2048,0.5738,595,TRUE,TRUE,579.2048,581.6657,"[""space""]",[0.45100000000002183],[null],599.5416,600.2839,k,0.4265,,9,"[0.52,0.51,0.95,0.4,0.56,0.48,0.43,0.74,0.4,0.43]",9,0,9,0,1,,,,,,,,,,,,,,,,,,,,,,,,,,,,,,,,,,
,,,,,695fe9333c8cab21d74e20ff,2026-02-02_14h33.26.323,causal,2025.1.1,Win32,238.0952381,,,,,,,,,,,,,,,,,,,,,,,,,,,,,,,,,,,,,,,,,,,,,,,,,,,,,,,,,,,,,,,,,,,,,,,,,,,,,,,,,,,,,,,,,24,0,24,0,1,,,,,,,,,,,,,,,,,,,,,,,,,,,,,
,,,,,695fe9333c8cab21d74e20ff,2026-02-02_14h33.26.323,causal,2025.1.1,Win32,238.0952381,,,,,,,,,,,,,,,,,,,,,,,,,,,,,,,,600.284,600.8387,600.8387,600.8387,test,613.7601,613.7601,602.3402,606.3983,green,stimuli/collisions/hit/stim15.mp4,k,3.7439,,TRUE,606.399,610.1395,100,1,[0.7504000000003543],[0.7504000000003543],red,green,blue,0,0,610.14,611.103,0,[],[],1,[611.1108000000007],[611.1108000000007],611.1031,613.7598,0.8961,620,TRUE,FALSE,613.7598,613.7598,,,,613.7602,613.7603,,,,,,0,0,0,0,1,,,,,,,,,,,,,,,,,,,,,,,,,,,,,,,,,,
,,,,,695fe9333c8cab21d74e20ff,2026-02-02_14h33.26.323,causal,2025.1.1,Win32,238.0952381,,,,,,,,,,,,,,,,,,,,,,,,,,,,,,,,,,,,,,,,,,,,,,,,,,,,,,,,,,,,,,,,,,,,,,,,,,,,,,,,,,,,,,,,,25,0,25,0,1,,,,,,,,,,,,,,,,,,,,,,,,,,,,,
,,,,,695fe9333c8cab21d74e20ff,2026-02-02_14h33.26.323,causal,2025.1.1,Win32,238.0952381,,,,,,,,,,,,,,,,,,,,,,,,,,,,,,,,613.7604,615.8285,615.8285,615.8285,catch,624.2829,624.2829,617.3301,620.4622,miss,stimuli/collisions/miss/stim2.mp4,space,2.8179,,TRUE,620.4628,620.4641,,0,[],[],red,green,blue,,,620.4645,621.7303,0,[],[],1,[621.7380999999996],[621.7380999999996],621.7304,624.2827,1.1821,650,TRUE,FALSE,624.2827,624.2827,,,,624.2829,624.2831,,,,,,0,0,0,0,1,,,,,,,,,,,,,,,,,,,,,,,,,,,,,,,,,,
,,,,,695fe9333c8cab21d74e20ff,2026-02-02_14h33.26.323,causal,2025.1.1,Win32,238.0952381,,,,,,,,,,,,,,,,,,,,,,,,,,,,,,,,,,,,,,,,,,,,,,,,,,,,,,,,,,,,,,,,,,,,,,,,,,,,,,,,,,,,,,,,,26,0,26,0,1,,,,,,,,,,,,,,,,,,,,,,,,,,,,,
,,,,,695fe9333c8cab21d74e20ff,2026-02-02_14h33.26.323,causal,2025.1.1,Win32,238.0952381,,,,,,,,,,,,,,,,,,,,,,,,,,,,,,,,,,,,,,,,,,,,,,,,,,,,,,,,,,,,,,,,,,,,,,,,,,,,,,,,,,,,,,,,,,,,,,624.2833,634.251,,,,,,,,,,,,,,,,,,,,,,,,,,,
,,,,,695fe9333c8cab21d74e20ff,2026-02-02_14h33.26.323,causal,2025.1.1,Win32,238.0952381,,,,,,,,,,,,,,,,,,,,,,,,,,,,,,,,,,,,,,,,,,,,,,,,,,,,,,,,,,,,,,,,,,,,,,,,,,,,,,,,,,,,,,,,,,,,,,,,634.251,648.1063,,,,,,,,,,,,,,,,,,,,,,,,,
,,,,,695fe9333c8cab21d74e20ff,2026-02-02_14h33.26.323,causal,2025.1.1,Win32,238.0952381,,,,,,,,,,,,,,,,,,,,,,,,,,,,,,,,648.1067,649.6911,,,,649.6914,651.1926,,,,stimuli/collisions/calibration/stim3.mp4,,,,,,,,,,,,,,,,,,,,,,,,,,,,,,,,,,,,,,,,,,,,,,,,,,,,,,,,649.6913,649.6914,651.1928,655.3217,655.3218,657.2402,1,[657.2415000000001],[657.2415000000001],0,[],[],FALSE,FALSE,TRUE,657.2403,659.1005,"[""space""]",[0.8520999999996093],[null],0,0,0,0,1
,,,,,695fe9333c8cab21d74e20ff,2026-02-02_14h33.26.323,causal,2025.1.1,Win32,238.0952381,,,,,,,,,,,,,,,,,,,,,,,,,,,,,,,,659.1006,660.3599,,,,660.36,661.8614,,,,stimuli/collisions/calibration/stim14.mp4,,,,,,,,,,,,,,,,,,,,,,,,,,,,,,,,,,,,,,,,,,,,,,,,,,,,,,,,660.36,660.36,661.8616,665.319,665.3196,666.1073,0,[],[],1,[666.1085],[666.1085],TRUE,FALSE,FALSE,666.1073,667.6462,"[""space""]",[0.5345999999997275],[null],1,0,1,0,1
,,,,,695fe9333c8cab21d74e20ff,2026-02-02_14h33.26.323,causal,2025.1.1,Win32,238.0952381,,,,,,,,,,,,,,,,,,,,,,,,,,,,,,,,667.6464,669.1895,,,,669.1895,670.6909,,,,stimuli/collisions/calibration/stim17.mp4,,,,,,,,,,,,,,,,,,,,,,,,,,,,,,,,,,,,,,,,,,,,,,,,,,,,,,,,669.1895,669.1895,670.6911,673.8899,673.8905,674.4072,0,[],[],1,[674.4084000000004],[674.4084000000004],TRUE,TRUE,TRUE,674.4072,675.8335,"[""space""]",[0.42129999999883694],[null],2,0,2,0,1
,,,,,695fe9333c8cab21d74e20ff,2026-02-02_14h33.26.323,causal,2025.1.1,Win32,238.0952381,,,,,,,,,,,,,,,,,,,,,,,,,,,,,,,,675.8337,676.5508,,,,676.551,678.0524,,,,stimuli/collisions/calibration/stim7.mp4,,,,,,,,,,,,,,,,,,,,,,,,,,,,,,,,,,,,,,,,,,,,,,,,,,,,,,,,676.551,676.551,678.0525,680.7217,680.7224,681.2597,0,[],[],1,[681.2608000000008],[681.2608000000008],TRUE,TRUE,TRUE,681.2597,682.8613,"[""space""]",[0.5942000000011376],[null],3,0,3,0,1
,,,,,695fe9333c8cab21d74e20ff,2026-02-02_14h33.26.323,causal,2025.1.1,Win32,238.0952381,,,,,,,,,,,,,,,,,,,,,,,,,,,,,,,,682.8614,683.829,,,,683.8291,685.3303,,,,stimuli/collisions/calibration/stim13.mp4,,,,,,,,,,,,,,,,,,,,,,,,,,,,,,,,,,,,,,,,,,,,,,,,,,,,,,,,683.8291,683.8291,685.3306,688.2583,688.2589,688.7712,1,[688.7725999999997],[688.7725999999997],0,[],[],FALSE,FALSE,TRUE,688.7713,690.252,"[""space""]",[0.4758000000007314],[null],4,0,4,0,1
,,,,,695fe9333c8cab21d74e20ff,2026-02-02_14h33.26.323,causal,2025.1.1,Win32,238.0952381,,,,,,,,,,,,,,,,,,,,,,,,,,,,,,,,690.2521,690.8775,,,,690.8776,692.379,,,,stimuli/collisions/calibration/stim1.mp4,,,,,,,,,,,,,,,,,,,,,,,,,,,,,,,,,,,,,,,,,,,,,,,,,,,,,,,,690.8776,690.8776,692.3791,695.7073,695.7079,696.4163,1,[696.4176999999993],[696.4176999999993],0,[],[],FALSE,FALSE,TRUE,696.4163,697.847,"[""space""]",[0.4242000000011785],[null],5,0,5,0,1
,,,,,695fe9333c8cab21d74e20ff,2026-02-02_14h33.26.323,causal,2025.1.1,Win32,238.0952381,,,,,,,,,,,,,,,,,,,,,,,,,,,,,,,,697.8471,698.6728,,,,698.6729,700.1743,,,,stimuli/collisions/calibration/stim15.mp4,,,,,,,,,,,,,,,,,,,,,,,,,,,,,,,,,,,,,,,,,,,,,,,,,,,,,,,,698.6728,698.6729,700.1745,703.5025,703.5036,705.0082,1,[705.0095],[705.0095],0,[],[],FALSE,TRUE,FALSE,705.0082,706.5932,"[""space""]",[0.5810999999996511],[null],6,0,6,0,1
,,,,,695fe9333c8cab21d74e20ff,2026-02-02_14h33.26.323,causal,2025.1.1,Win32,238.0952381,,,,,,,,,,,,,,,,,,,,,,,,,,,,,,,,706.5933,707.1936,,,,707.1937,708.6951,,,,stimuli/collisions/calibration/stim5.mp4,,,,,,,,,,,,,,,,,,,,,,,,,,,,,,,,,,,,,,,,,,,,,,,,,,,,,,,,707.1937,707.1937,708.6953,712.8952,712.8957,713.4247,1,[713.4260999999997],[713.4260999999997],0,[],[],FALSE,FALSE,TRUE,713.4248,714.6968,"[""space""]",[0.2688000000007378],[null],7,0,7,0,1
,,,,,695fe9333c8cab21d74e20ff,2026-02-02_14h33.26.323,causal,2025.1.1,Win32,238.0952381,,,,,,,,,,,,,,,,,,,,,,,,,,,,,,,,714.697,715.3308,,,,715.3309,716.8323,,,,stimuli/collisions/calibration/stim11.mp4,,,,,,,,,,,,,,,,,,,,,,,,,,,,,,,,,,,,,,,,,,,,,,,,,,,,,,,,715.3309,715.3309,716.8325,719.7311,719.7318,720.1356,0,[],[],1,[720.1368000000008],[720.1368000000008],TRUE,TRUE,TRUE,720.1356,721.4703,"[""space""]",[0.32969999999920674],[null],8,0,8,0,1
,,,,,695fe9333c8cab21d74e20ff,2026-02-02_14h33.26.323,causal,2025.1.1,Win32,238.0952381,,,,,,,,,,,,,,,,,,,,,,,,,,,,,,,,721.4703,722.2335,,,,722.2336,723.7349,,,,stimuli/collisions/calibration/stim9.mp4,,,,,,,,,,,,,,,,,,,,,,,,,,,,,,,,,,,,,,,,,,,,,,,,,,,,,,,,722.2335,722.2336,723.7351,726.834,726.8345,727.3093,1,[727.3106999999993],[727.3106999999993],0,[],[],FALSE,FALSE,TRUE,727.3093,728.8609,"[""space""]",[0.5465999999995574],[null],9,0,9,0,1
,,,,,695fe9333c8cab21d74e20ff,2026-02-02_14h33.26.323,causal,2025.1.1,Win32,238.0952381,,,,,,,,,,,,,,,,,,,,,,,,,,,,,,,,728.861,729.5865,,,,729.5866,731.0881,,,,stimuli/collisions/calibration/stim19.mp4,,,,,,,,,,,,,,,,,,,,,,,,,,,,,,,,,,,,,,,,,,,,,,,,,,,,,,,,729.5866,729.5866,731.0882,734.1451,734.1458,735.2171,1,[735.2185000000001],[735.2185000000001],0,[],[],FALSE,FALSE,TRUE,735.2172,736.8813,"[""space""]",[0.6590000000001055],[null],10,0,10,0,1
,,,,,695fe9333c8cab21d74e20ff,2026-02-02_14h33.26.323,causal,2025.1.1,Win32,238.0952381,,,,,,,,,,,,,,,,,,,,,,,,,,,,,,,,736.8814,737.4318,,,,737.4319,738.9333,,,,stimuli/collisions/calibration/stim4.mp4,,,,,,,,,,,,,,,,,,,,,,,,,,,,,,,,,,,,,,,,,,,,,,,,,,,,,,,,737.4319,737.4319,738.9335,741.7027,741.7033,742.1322,0,[],[],1,[742.1334000000004],[742.1334000000004],TRUE,TRUE,TRUE,742.1322,745.2937,"[""space""]",[2.1564000000003034],[null],11,0,11,0,1
,,,,,695fe9333c8cab21d74e20ff,2026-02-02_14h33.26.323,causal,2025.1.1,Win32,238.0952381,,,,,,,,,,,,,,,,,,,,,,,,,,,,,,,,745.2939,745.7734,,,,745.7735,747.2749,,,,stimuli/collisions/calibration/stim6.mp4,,,,,,,,,,,,,,,,,,,,,,,,,,,,,,,,,,,,,,,,,,,,,,,,,,,,,,,,745.7735,745.7735,747.2751,749.9442,749.9448,750.4113,1,[750.4125999999997],[750.4125999999997],0,[],[],FALSE,FALSE,TRUE,750.4113,751.8971,"[""space""]",[0.4832000000010339],[null],12,0,12,0,1
,,,,,695fe9333c8cab21d74e20ff,2026-02-02_14h33.26.323,causal,2025.1.1,Win32,238.0952381,,,,,,,,,,,,,,,,,,,,,,,,,,,,,,,,751.8972,752.4841,,,,752.4842,753.9857,,,,stimuli/collisions/calibration/stim20.mp4,,,,,,,,,,,,,,,,,,,,,,,,,,,,,,,,,,,,,,,,,,,,,,,,,,,,,,,,752.4842,752.4842,753.9859,756.7551,756.7558,757.1513,0,[],[],1,[757.1525],[757.1525],TRUE,TRUE,TRUE,757.1513,758.6027,"[""space""]",[0.4477999999988924],[null],13,0,13,0,1
,,,,,695fe9333c8cab21d74e20ff,2026-02-02_14h33.26.323,causal,2025.1.1,Win32,238.0952381,,,,,,,,,,,,,,,,,,,,,,,,,,,,,,,,758.6029,759.2701,,,,759.2701,760.7715,,,,stimuli/collisions/calibration/stim12.mp4,,,,,,,,,,,,,,,,,,,,,,,,,,,,,,,,,,,,,,,,,,,,,,,,,,,,,,,,759.2701,759.2701,760.7717,763.5995,763.6002,763.9179,0,[],[],1,[763.9191000000015],[763.9191000000015],TRUE,FALSE,FALSE,763.9179,765.4887,"[""space""]",[0.563100000001441],[null],14,0,14,0,1
,,,,,695fe9333c8cab21d74e20ff,2026-02-02_14h33.26.323,causal,2025.1.1,Win32,238.0952381,,,,,,,,,,,,,,,,,,,,,,,,,,,,,,,,765.4889,766.0225,,,,766.0226,767.524,,,,stimuli/collisions/calibration/stim16.mp4,,,,,,,,,,,,,,,,,,,,,,,,,,,,,,,,,,,,,,,,,,,,,,,,,,,,,,,,766.0225,766.0226,767.5242,771.1526,771.1531,771.5654,1,[771.5668000000009],[771.5668000000009],0,[],[],FALSE,FALSE,TRUE,771.5654,772.8334,"[""space""]",[0.26519999999925403],[null],15,0,15,0,1
,,,,,695fe9333c8cab21d74e20ff,2026-02-02_14h33.26.323,causal,2025.1.1,Win32,238.0952381,,,,,,,,,,,,,,,,,,,,,,,,,,,,,,,,772.8336,773.4507,,,,773.4508,774.9522,,,,stimuli/collisions/calibration/stim18.mp4,,,,,,,,,,,,,,,,,,,,,,,,,,,,,,,,,,,,,,,,,,,,,,,,,,,,,,,,773.4508,773.4508,774.9524,778.3514,778.352,778.7017,1,[778.7030000000001],[778.7030000000001],0,[],[],FALSE,FALSE,TRUE,778.7017,780.053,"[""space""]",[0.34719999999924767],[null],16,0,16,0,1
,,,,,695fe9333c8cab21d74e20ff,2026-02-02_14h33.26.323,causal,2025.1.1,Win32,238.0952381,,,,,,,,,,,,,,,,,,,,,,,,,,,,,,,,780.0532,780.6203,,,,780.6204,782.1218,,,,stimuli/collisions/calibration/stim10.mp4,,,,,,,,,,,,,,,,,,,,,,,,,,,,,,,,,,,,,,,,,,,,,,,,,,,,,,,,780.6204,780.6204,782.122,784.8913,784.8919,785.2832,0,[],[],1,[785.2843000000008],[785.2843000000008],TRUE,TRUE,TRUE,785.2832,786.5761,"[""space""]",[0.2884999999999991],[null],17,0,17,0,1
,,,,,695fe9333c8cab21d74e20ff,2026-02-02_14h33.26.323,causal,2025.1.1,Win32,238.0952381,,,,,,,,,,,,,,,,,,,,,,,,,,,,,,,,786.5763,787.0766,,,,787.0767,788.5781,,,,stimuli/collisions/calibration/stim8.mp4,,,,,,,,,,,,,,,,,,,,,,,,,,,,,,,,,,,,,,,,,,,,,,,,,,,,,,,,787.0766,787.0767,788.5783,792.1109,792.1116,792.799,0,[],[],1,[792.8002000000012],[792.8002000000012],TRUE,FALSE,FALSE,792.799,794.0335,"[""space""]",[0.23189999999851807],[null],18,0,18,0,1
,,,,,695fe9333c8cab21d74e20ff,2026-02-02_14h33.26.323,causal,2025.1.1,Win32,238.0952381,,,,,,,,,,,,,,,,,,,,,,,,,,,,,,,,794.0337,794.5756,,,,794.5757,796.0773,,,,stimuli/collisions/calibration/stim2.mp4,,,,,,,,,,,,,,,,,,,,,,,,,,,,,,,,,,,,,,,,,,,,,,,,,,,,,,,,794.5757,794.5757,796.0774,799.7767,799.7773,800.1395,0,[],[],1,[800.1407000000012],[800.1407000000012],TRUE,TRUE,TRUE,800.1396,801.6159,"[""space""]",[0.4690999999995711],[null],19,0,19,0,1
