intro.started,intro.stopped,button_6.numClicks,button_6.timesOn,button_6.timesOff,participant,date,expName,psychopyVersion,OS,frameRate,timing_info.started,timing_info.stopped,button_7.numClicks,button_7.timesOn,button_7.timesOff,hand_positions.started,hand_positions.stopped,space_bar.keys,space_bar.rt,space_bar.duration,train_keys.started,train_keys.stopped,key_resp.keys,key_resp.rt,key_resp.duration,score.started,score.stopped,training_rounds,training.thisRepN,training.thisTrialN,training.thisN,training.thisIndex,training.ran,test_instruct.started,test_instruct.stopped,instruct_cont.started,instruct_cont.stopped,point_instruct.started,point_instruct.stopped,accident_instruct.started,accident_instruct.stopped,advance.started,advance.stopped,flip_video.started,flip_video.stopped,trial_type,buffer.started,buffer.stopped,collision.started,collision.stopped,selection,stimuli_path,select_resp.keys,select_resp.rt,select_resp.duration,resp_trial,responsibility.started,responsibility.stopped,conf_2.response,button.numClicks,button.timesOn,button.timesOff,conf_one,conf_two,conf_three,conf_3.response,conf_1.response,forfeit.started,forfeit.stopped,forfeit_button.numClicks,forfeit_button.timesOn,forfeit_button.timesOff,keep_button.numClicks,keep_button.timesOn,keep_button.timesOff,accuracy.started,accuracy.stopped,rt_diff,acc_points,keep_round,practice_round,begin_review.started,begin_review.stopped,space_bar_6.keys,space_bar_6.rt,space_bar_6.duration,review_keys.started,review_keys.stopped,key_resp_2.keys,key_resp_2.rt,key_resp_2.duration,review_trials,baseline_rts,review.thisRepN,review.thisTrialN,review.thisN,review.thisIndex,review.ran,trials.thisRepN,trials.thisTrialN,trials.thisN,trials.thisIndex,trials.ran,transition.started,transition.stopped,calibrate_instruct.started,calibrate_instruct.stopped,flip_calibration.started,flip_calibration.stopped,calibrate.started,calibrate.stopped,prediction.started,prediction.stopped,miss.numClicks,miss.timesOn,miss.timesOff,hit.numClicks,hit.timesOn,hit.timesOff,calibration_pred,calibration_actual,calibration_score,cal_feedback.started,cal_feedback.stopped,space_bar_12.keys,space_bar_12.rt,space_bar_12.duration,calibration.thisRepN,calibration.thisTrialN,calibration.thisN,calibration.thisIndex,calibration.ran
0.0004,13.2613,1,[8.266599999994042],[8.266599999994042],697a75a62232e02fbcdf2a29,2026-02-02_15h23.43.512,causal,2025.1.1,MacIntel,120.4819277,,,,,,,,,,,,,,,,,,,,,,,,,,,,,,,,,,,,,,,,,,,,,,,,,,,,,,,,,,,,,,,,,,,,,,,,,,,,,,,,,,,,,,,,,,,,,,,,,,,,,,,,,,,,,,,,,,,,,,,,,,
,,,,,697a75a62232e02fbcdf2a29,2026-02-02_15h23.43.512,causal,2025.1.1,MacIntel,120.4819277,13.2613,21.9779,1,[3.7165999999940382],[3.71669999998808],,,,,,,,,,,,,,,,,,,,,,,,,,,,,,,,,,,,,,,,,,,,,,,,,,,,,,,,,,,,,,,,,,,,,,,,,,,,,,,,,,,,,,,,,,,,,,,,,,,,,,,,,,,,,,,,,,,,,
,,,,,697a75a62232e02fbcdf2a29,2026-02-02_15h23.43.512,causal,2025.1.1,MacIntel,120.4819277,,,,,,21.9781,55.603,"[""space"",""space""]","[8.730000000000004,30.58679999999702]","[null,null]",,,,,,,,,,,,,,,,,,,,,,,,,,,,,,,,,,,,,,,,,,,,,,,,,,,,,,,,,,,,,,,,,,,,,,,,,,,,,,,,,,,,,,,,,,,,,,,,,,,,,,,,,,,,,,,,
,,,,,697a75a62232e02fbcdf2a29,2026-02-02_15h23.43.512,causal,2025.1.1,MacIntel,120.4819277,,,,,,,,,,,119.7458,120.6199,space,0.5176,,120.6208,124.2115,1,0,0,0,0,1,,,,,,,,,,,,,,,,,,,,,,,,,,,,,,,,,,,,,,,,,,,,,,,,,,,,,,,,,,,,,,,,,,,,,,,,,,,,,,,,,,,,,,,,,,,,,,,,,,,
,,,,,697a75a62232e02fbcdf2a29,2026-02-02_15h23.43.512,causal,2025.1.1,MacIntel,120.4819277,,,,,,,,,,,,,,,,,,,,,,,,124.2119,146.2357,,,,,,,,,,,,,,,,,,,,,,,,,,,,,,,,,,,,,,,,,,,,,,,,,,,,,,,,,,,,,,,,,,,,,,,,,,,,,,,,,,,,,,,,,,,,,,,,,
,,,,,697a75a62232e02fbcdf2a29,2026-02-02_15h23.43.512,causal,2025.1.1,MacIntel,120.4819277,,,,,,,,,,,,,,,,,,,,,,,,,,146.2359,156.0537,,,,,,,,,,,,,,,,,,,,,,,,,,,,,,,,,,,,,,,,,,,,,,,,,,,,,,,,,,,,,,,,,,,,,,,,,,,,,,,,,,,,,,,,,,,,,,,
,,,,,697a75a62232e02fbcdf2a29,2026-02-02_15h23.43.512,causal,2025.1.1,MacIntel,120.4819277,,,,,,,,,,,,,,,,,,,,,,,,,,,,156.0539,180.7791,,,,,,,,,,,,,,,,,,,,,,,,,,,,,,,,,,,,,,,,,,,,,,,,,,,,,,,,,,,,,,,,,,,,,,,,,,,,,,,,,,,,,,,,,,,,,
,,,,,697a75a62232e02fbcdf2a29,2026-02-02_15h23.43.512,causal,2025.1.1,MacIntel,120.4819277,,,,,,,,,,,,,,,,,,,,,,,,,,,,,,180.7793,190.6622,,,,,,,,,,,,,,,,,,,,,,,,,,,,,,,,,,,,,,,,,,,,,,,,,,,,,,,,,,,,,,,,,,,,,,,,,,,,,,,,,,,,,,,,,,,
,,,,,697a75a62232e02fbcdf2a29,2026-02-02_15h23.43.512,causal,2025.1.1,MacIntel,120.4819277,,,,,,,,,,,,,,,,,,,,,,,,,,,,,,,,190.664,198.4323,198.4327,198.4328,train,264.5707,265.5785,199.9424,202.1081,red,stimuli/collisions/training/stim3.mp4,j,1.8119,,TRUE,202.1095,232.3576,100,1,[5.650700000002956],[5.650700000002956],red,green,blue,0,0,232.3578,236.1242,1,[236.13129999999703],[236.13129999999703],0,[],[],236.1246,242.4581,1.4581,-5,FALSE,TRUE,242.4583,245.5247,"[""space""]",[1.0465999999940436],[null],265.5786,266.5194,space,0.5814,,9,"[1.98,0.63,0.81,0.72,0.63,0.61,0.54,0.63,0.46,0.58]",9,0,9,0,1,,,,,,,,,,,,,,,,,,,,,,,,,,,,,,,,,,
,,,,,697a75a62232e02fbcdf2a29,2026-02-02_15h23.43.512,causal,2025.1.1,MacIntel,120.4819277,,,,,,,,,,,,,,,,,,,,,,,,,,,,,,,,,,,,,,,,,,,,,,,,,,,,,,,,,,,,,,,,,,,,,,,,,,,,,,,,,,,,,,,,,0,0,0,0,1,,,,,,,,,,,,,,,,,,,,,,,,,,,,,
,,,,,697a75a62232e02fbcdf2a29,2026-02-02_15h23.43.512,causal,2025.1.1,MacIntel,120.4819277,,,,,,,,,,,,,,,,,,,,,,,,,,,,,,,,266.5205,267.8869,267.8872,267.8872,train,298.4295,298.4297,269.3954,271.8153,blue,stimuli/collisions/training/stim1.mp4,f,2.0924,,TRUE,271.8176,287.199,0,1,[1.716799999997022],[1.716799999997022],red,green,blue,0,100,287.1997,290.9901,1,[290.99739999999105],[290.99739999999105],0,[],[],290.9903,298.4284,2.0476,-10,FALSE,FALSE,298.4285,298.4286,,,,298.4297,298.4303,,,,,,0,0,0,0,1,,,,,,,,,,,,,,,,,,,,,,,,,,,,,,,,,,
,,,,,697a75a62232e02fbcdf2a29,2026-02-02_15h23.43.512,causal,2025.1.1,MacIntel,120.4819277,,,,,,,,,,,,,,,,,,,,,,,,,,,,,,,,,,,,,,,,,,,,,,,,,,,,,,,,,,,,,,,,,,,,,,,,,,,,,,,,,,,,,,,,,1,0,1,0,1,,,,,,,,,,,,,,,,,,,,,,,,,,,,,
,,,,,697a75a62232e02fbcdf2a29,2026-02-02_15h23.43.512,causal,2025.1.1,MacIntel,120.4819277,,,,,,,,,,,,,,,,,,,,,,,,,,,,,,,,298.4304,300.2115,300.2116,300.2116,train,312.1454,312.1456,301.7208,304.5696,miss,stimuli/collisions/training/stim2.mp4,space,2.5214,,TRUE,304.5726,304.5762,,0,[],[],red,green,blue,,,304.577,306.7199,0,[],[],1,[306.72710000000893],[306.72710000000893],306.7203,312.1449,1.4786,20,TRUE,FALSE,312.145,312.145,,,,312.1456,312.1458,,,,,,0,0,0,0,1,,,,,,,,,,,,,,,,,,,,,,,,,,,,,,,,,,
,,,,,697a75a62232e02fbcdf2a29,2026-02-02_15h23.43.512,causal,2025.1.1,MacIntel,120.4819277,,,,,,,,,,,,,,,,,,,,,,,,,,,,,,,,,,,,,,,,,,,,,,,,,,,,,,,,,,,,,,,,,,,,,,,,,,,,,,,,,,,,,,,,,2,0,2,0,1,,,,,,,,,,,,,,,,,,,,,,,,,,,,,
,,,,,697a75a62232e02fbcdf2a29,2026-02-02_15h23.43.512,causal,2025.1.1,MacIntel,120.4819277,,,,,,,,,,,,,,,,,,,,,,,,,,,,,,,,312.1459,315.6119,315.6122,315.6123,test,335.329,335.329,317.1208,319.0952,blue,stimuli/collisions/hit/stim16.mp4,f,1.6535,,TRUE,319.0978,328.2947,0,1,[1.1576000000089266],[1.1576000000089266],red,green,blue,100,0,328.2963,329.7784,0,[],[],1,[329.7855],[329.7855],329.7786,335.3282,1.1565,50,TRUE,FALSE,335.3283,335.3283,,,,335.3291,335.3295,,,,,,0,0,0,0,1,,,,,,,,,,,,,,,,,,,,,,,,,,,,,,,,,,
,,,,,697a75a62232e02fbcdf2a29,2026-02-02_15h23.43.512,causal,2025.1.1,MacIntel,120.4819277,,,,,,,,,,,,,,,,,,,,,,,,,,,,,,,,,,,,,,,,,,,,,,,,,,,,,,,,,,,,,,,,,,,,,,,,,,,,,,,,,,,,,,,,,3,0,3,0,1,,,,,,,,,,,,,,,,,,,,,,,,,,,,,
,,,,,697a75a62232e02fbcdf2a29,2026-02-02_15h23.43.512,causal,2025.1.1,MacIntel,120.4819277,,,,,,,,,,,,,,,,,,,,,,,,,,,,,,,,335.3295,336.5034,336.5035,336.5036,test,356.5553,356.5555,338.013,340.6864,blue,stimuli/collisions/hit/stim4.mp4,f,2.3456,,TRUE,340.6897,351.8702,0,1,[2.0501000000089675],[2.0501000000089675],red,green,blue,87,0,351.8719,352.7617,0,[],[],1,[352.76880000001194],[352.768900000006],352.762,356.5537,1.6644,80,TRUE,FALSE,356.5539,356.5541,,,,356.5556,356.5565,,,,,,0,0,0,0,1,,,,,,,,,,,,,,,,,,,,,,,,,,,,,,,,,,
,,,,,697a75a62232e02fbcdf2a29,2026-02-02_15h23.43.512,causal,2025.1.1,MacIntel,120.4819277,,,,,,,,,,,,,,,,,,,,,,,,,,,,,,,,,,,,,,,,,,,,,,,,,,,,,,,,,,,,,,,,,,,,,,,,,,,,,,,,,,,,,,,,,4,0,4,0,1,,,,,,,,,,,,,,,,,,,,,,,,,,,,,
,,,,,697a75a62232e02fbcdf2a29,2026-02-02_15h23.43.512,causal,2025.1.1,MacIntel,120.4819277,,,,,,,,,,,,,,,,,,,,,,,,,,,,,,,,356.5568,358.4121,358.4122,358.4122,test,375.1458,375.1459,359.921,362.2781,red,stimuli/collisions/hit/stim9.mp4,j,2.0298,,TRUE,362.2802,370.2025,0,1,[1.0490999999940414],[1.0490999999940414],red,green,blue,0,100,370.2041,371.369,0,[],[],1,[371.376200000003],[371.376200000003],371.3693,375.1451,0.9402,105,TRUE,FALSE,375.1451,375.1452,,,,375.146,375.1463,,,,,,0,0,0,0,1,,,,,,,,,,,,,,,,,,,,,,,,,,,,,,,,,,
,,,,,697a75a62232e02fbcdf2a29,2026-02-02_15h23.43.512,causal,2025.1.1,MacIntel,120.4819277,,,,,,,,,,,,,,,,,,,,,,,,,,,,,,,,,,,,,,,,,,,,,,,,,,,,,,,,,,,,,,,,,,,,,,,,,,,,,,,,,,,,,,,,,5,0,5,0,1,,,,,,,,,,,,,,,,,,,,,,,,,,,,,
,,,,,697a75a62232e02fbcdf2a29,2026-02-02_15h23.43.512,causal,2025.1.1,MacIntel,120.4819277,,,,,,,,,,,,,,,,,,,,,,,,,,,,,,,,375.1464,378.4787,378.4788,378.4789,catch,429.0542,430.062,379.9866,381.7615,blue,stimuli/collisions/miss/stim4.mp4,f,1.4515,,TRUE,381.7636,392.078,0,1,[2.057200000002979],[2.057200000002979],red,green,blue,60,0,392.0796,394.2276,1,[394.235099999994],[394.235099999994],0,[],[],394.2279,407.1201,2.5485,100,FALSE,TRUE,407.1202,410.3782,"[""space""]",[1.2423999999910507],[null],430.0621,430.9955,f,0.6085,,9,"[1.93,0.6,0.67,0.63,0.63,0.38,0.51,0.46,0.78,0.61]",9,0,9,0,1,,,,,,,,,,,,,,,,,,,,,,,,,,,,,,,,,,
,,,,,697a75a62232e02fbcdf2a29,2026-02-02_15h23.43.512,causal,2025.1.1,MacIntel,120.4819277,,,,,,,,,,,,,,,,,,,,,,,,,,,,,,,,,,,,,,,,,,,,,,,,,,,,,,,,,,,,,,,,,,,,,,,,,,,,,,,,,,,,,,,,,6,0,6,0,1,,,,,,,,,,,,,,,,,,,,,,,,,,,,,
,,,,,697a75a62232e02fbcdf2a29,2026-02-02_15h23.43.512,causal,2025.1.1,MacIntel,120.4819277,,,,,,,,,,,,,,,,,,,,,,,,,,,,,,,,430.996,431.97,431.9702,431.9702,test,458.897,458.8972,433.4788,436.195,blue,stimuli/collisions/hit/stim15.mp4,space,2.5064,,TRUE,436.1969,444.9787,0,1,[0.9997999999970375],[0.9997999999970375],red,green,blue,0,0,444.9802,446.3785,1,[446.38589999999107],[446.38589999999107],0,[],[],446.3787,458.8957,2.2499,95,FALSE,FALSE,458.8958,458.8959,,,,458.8973,458.8982,,,,,,0,0,0,0,1,,,,,,,,,,,,,,,,,,,,,,,,,,,,,,,,,,
,,,,,697a75a62232e02fbcdf2a29,2026-02-02_15h23.43.512,causal,2025.1.1,MacIntel,120.4819277,,,,,,,,,,,,,,,,,,,,,,,,,,,,,,,,,,,,,,,,,,,,,,,,,,,,,,,,,,,,,,,,,,,,,,,,,,,,,,,,,,,,,,,,,7,0,7,0,1,,,,,,,,,,,,,,,,,,,,,,,,,,,,,
,,,,,697a75a62232e02fbcdf2a29,2026-02-02_15h23.43.512,causal,2025.1.1,MacIntel,120.4819277,,,,,,,,,,,,,,,,,,,,,,,,,,,,,,,,458.8984,461.3283,461.3284,461.3285,test,498.9627,499.9704,462.838,464.9037,red,stimuli/collisions/hit/stim6.mp4,j,1.736,,TRUE,464.907,472.4703,0,1,[0.9915999999940368],[0.9915999999940368],red,green,blue,0,91,472.4719,474.0693,0,[],[],1,[474.07640000000595],[474.07640000000595],474.0696,478.3954,1.504,125,TRUE,TRUE,478.3954,481.5783,"[""space""]",[1.169099999994046],[null],499.9705,500.9375,f,0.642,,9,"[0.82,0.47,0.62,0.63,0.56,0.57,0.43,0.57,0.61,0.64]",9,0,9,0,1,,,,,,,,,,,,,,,,,,,,,,,,,,,,,,,,,,
,,,,,697a75a62232e02fbcdf2a29,2026-02-02_15h23.43.512,causal,2025.1.1,MacIntel,120.4819277,,,,,,,,,,,,,,,,,,,,,,,,,,,,,,,,,,,,,,,,,,,,,,,,,,,,,,,,,,,,,,,,,,,,,,,,,,,,,,,,,,,,,,,,,8,0,8,0,1,,,,,,,,,,,,,,,,,,,,,,,,,,,,,
,,,,,697a75a62232e02fbcdf2a29,2026-02-02_15h23.43.512,causal,2025.1.1,MacIntel,120.4819277,,,,,,,,,,,,,,,,,,,,,,,,,,,,,,,,500.9381,501.9612,501.9614,501.9615,test,536.5754,537.583,503.4622,506.195,miss,stimuli/collisions/hit/stim12.mp4,space,2.407,,TRUE,506.1967,506.1991,,0,[],[],red,green,blue,,,506.1996,511.395,0,[],[],1,[511.40230000001185],[511.40230000001185],511.3952,514.2869,1.703,85,TRUE,TRUE,514.287,518.9997,"[""space""]",[2.694400000005885],[null],537.5832,538.4004,j,0.4929,,9,"[0.84,0.5,0.75,0.54,0.76,0.55,0.49,0.55,0.55,0.49]",9,0,9,0,1,,,,,,,,,,,,,,,,,,,,,,,,,,,,,,,,,,
,,,,,697a75a62232e02fbcdf2a29,2026-02-02_15h23.43.512,causal,2025.1.1,MacIntel,120.4819277,,,,,,,,,,,,,,,,,,,,,,,,,,,,,,,,,,,,,,,,,,,,,,,,,,,,,,,,,,,,,,,,,,,,,,,,,,,,,,,,,,,,,,,,,9,0,9,0,1,,,,,,,,,,,,,,,,,,,,,,,,,,,,,
,,,,,697a75a62232e02fbcdf2a29,2026-02-02_15h23.43.512,causal,2025.1.1,MacIntel,120.4819277,,,,,,,,,,,,,,,,,,,,,,,,,,,,,,,,538.401,539.2658,539.2658,539.2658,test,555.1585,555.1586,540.7743,543.3492,red,stimuli/collisions/hit/stim14.mp4,j,2.2517,,TRUE,543.3506,549.9829,0,1,[0.8167000000029248],[0.8167000000029248],red,green,blue,0,100,549.9844,551.0411,0,[],[],1,[551.0482000000029],[551.0482000000029],551.0412,555.1578,0.6883,110,TRUE,FALSE,555.1579,555.1579,,,,555.1586,555.159,,,,,,0,0,0,0,1,,,,,,,,,,,,,,,,,,,,,,,,,,,,,,,,,,
,,,,,697a75a62232e02fbcdf2a29,2026-02-02_15h23.43.512,causal,2025.1.1,MacIntel,120.4819277,,,,,,,,,,,,,,,,,,,,,,,,,,,,,,,,,,,,,,,,,,,,,,,,,,,,,,,,,,,,,,,,,,,,,,,,,,,,,,,,,,,,,,,,,10,0,10,0,1,,,,,,,,,,,,,,,,,,,,,,,,,,,,,
,,,,,697a75a62232e02fbcdf2a29,2026-02-02_15h23.43.512,causal,2025.1.1,MacIntel,120.4819277,,,,,,,,,,,,,,,,,,,,,,,,,,,,,,,,555.1592,556.4166,556.4166,556.4167,test,589.5741,590.5749,557.9246,561.3074,miss,stimuli/collisions/hit/stim10.mp4,f,3.2143,,TRUE,561.3087,561.3107,,0,[],[],red,green,blue,,,561.3111,563.6239,1,[563.6312999999969],[563.6312999999969],0,[],[],563.6241,568.1577,1.1841,105,FALSE,TRUE,568.1577,571.8914,"[""space""]",[1.7164999999999964],[null],590.5751,592.1326,k,1.2332,,9,"[0.69,0.6,0.43,0.62,0.61,0.5,0.46,0.78,1,1.23]",9,0,9,0,1,,,,,,,,,,,,,,,,,,,,,,,,,,,,,,,,,,
,,,,,697a75a62232e02fbcdf2a29,2026-02-02_15h23.43.512,causal,2025.1.1,MacIntel,120.4819277,,,,,,,,,,,,,,,,,,,,,,,,,,,,,,,,,,,,,,,,,,,,,,,,,,,,,,,,,,,,,,,,,,,,,,,,,,,,,,,,,,,,,,,,,11,0,11,0,1,,,,,,,,,,,,,,,,,,,,,,,,,,,,,
,,,,,697a75a62232e02fbcdf2a29,2026-02-02_15h23.43.512,causal,2025.1.1,MacIntel,120.4819277,,,,,,,,,,,,,,,,,,,,,,,,,,,,,,,,592.1327,596.4915,596.4916,596.4916,test,625.7169,625.717,597.9998,600.9247,blue,stimuli/collisions/hit/stim11.mp4,f,2.6059,,TRUE,600.9279,619.3237,84,1,[0.9409999999999172],[0.9409999999999172],red,green,blue,94,0,619.3247,620.3994,1,[620.4066999999881],[620.4066999999881],0,[],[],620.3996,625.7162,0.9641,100,FALSE,FALSE,625.7163,625.7163,,,,625.7171,625.7178,,,,,,0,0,0,0,1,,,,,,,,,,,,,,,,,,,,,,,,,,,,,,,,,,
,,,,,697a75a62232e02fbcdf2a29,2026-02-02_15h23.43.512,causal,2025.1.1,MacIntel,120.4819277,,,,,,,,,,,,,,,,,,,,,,,,,,,,,,,,,,,,,,,,,,,,,,,,,,,,,,,,,,,,,,,,,,,,,,,,,,,,,,,,,,,,,,,,,12,0,12,0,1,,,,,,,,,,,,,,,,,,,,,,,,,,,,,
,,,,,697a75a62232e02fbcdf2a29,2026-02-02_15h23.43.512,causal,2025.1.1,MacIntel,120.4819277,,,,,,,,,,,,,,,,,,,,,,,,,,,,,,,,625.718,628.6493,628.6495,628.6495,catch,674.4171,675.4244,630.158,632.8577,red,stimuli/collisions/miss/stim2.mp4,j,2.3735,,TRUE,632.8597,640.2164,0,1,[0.8252000000029511],[0.8252000000029511],red,green,blue,0,0,640.2173,641.2576,1,[641.265],[641.265],0,[],[],641.2576,651.7824,1.6265,95,FALSE,TRUE,651.7825,654.0249,"[""space""]",[0.23089999999103838],[null],675.4244,676.4667,f,0.714,,9,"[1.5,0.75,0.63,1.36,0.58,0.51,0.75,0.63,0.71]",9,0,9,0,1,,,,,,,,,,,,,,,,,,,,,,,,,,,,,,,,,,
,,,,,697a75a62232e02fbcdf2a29,2026-02-02_15h23.43.512,causal,2025.1.1,MacIntel,120.4819277,,,,,,,,,,,,,,,,,,,,,,,,,,,,,,,,,,,,,,,,,,,,,,,,,,,,,,,,,,,,,,,,,,,,,,,,,,,,,,,,,,,,,,,,,13,0,13,0,1,,,,,,,,,,,,,,,,,,,,,,,,,,,,,
,,,,,697a75a62232e02fbcdf2a29,2026-02-02_15h23.43.512,causal,2025.1.1,MacIntel,120.4819277,,,,,,,,,,,,,,,,,,,,,,,,,,,,,,,,676.467,677.5494,677.5494,677.5495,test,696.158,696.158,679.0589,682.1826,blue,stimuli/collisions/hit/stim5.mp4,f,2.7969,,TRUE,682.1843,690.3417,0,1,[0.9918999999911193],[0.9918999999911193],red,green,blue,0,100,690.3431,692.2412,1,[692.248399999991],[692.248399999991],0,[],[],692.2414,696.1576,1.1431,90,FALSE,FALSE,696.1576,696.1576,,,,696.158,696.1581,,,,,,0,0,0,0,1,,,,,,,,,,,,,,,,,,,,,,,,,,,,,,,,,,
,,,,,697a75a62232e02fbcdf2a29,2026-02-02_15h23.43.512,causal,2025.1.1,MacIntel,120.4819277,,,,,,,,,,,,,,,,,,,,,,,,,,,,,,,,,,,,,,,,,,,,,,,,,,,,,,,,,,,,,,,,,,,,,,,,,,,,,,,,,,,,,,,,,14,0,14,0,1,,,,,,,,,,,,,,,,,,,,,,,,,,,,,
,,,,,697a75a62232e02fbcdf2a29,2026-02-02_15h23.43.512,causal,2025.1.1,MacIntel,120.4819277,,,,,,,,,,,,,,,,,,,,,,,,,,,,,,,,696.1583,701.2743,701.2743,701.2743,test,717.6761,717.6764,702.7754,705.6499,red,stimuli/collisions/hit/stim8.mp4,j,2.5502,,TRUE,705.6528,712.7488,0,1,[0.8657000000030166],[0.8657000000030166],red,green,blue,100,0,712.7504,714.1496,1,[714.156899999991],[714.156899999991],0,[],[],714.1497,717.675,0.7898,85,FALSE,FALSE,717.675,717.6751,,,,717.6764,717.6769,,,,,,0,0,0,0,1,,,,,,,,,,,,,,,,,,,,,,,,,,,,,,,,,,
,,,,,697a75a62232e02fbcdf2a29,2026-02-02_15h23.43.512,causal,2025.1.1,MacIntel,120.4819277,,,,,,,,,,,,,,,,,,,,,,,,,,,,,,,,,,,,,,,,,,,,,,,,,,,,,,,,,,,,,,,,,,,,,,,,,,,,,,,,,,,,,,,,,15,0,15,0,1,,,,,,,,,,,,,,,,,,,,,,,,,,,,,
,,,,,697a75a62232e02fbcdf2a29,2026-02-02_15h23.43.512,causal,2025.1.1,MacIntel,120.4819277,,,,,,,,,,,,,,,,,,,,,,,,,,,,,,,,717.6772,719.083,719.0831,719.0831,test,764.6715,765.675,720.5918,723.4994,blue,stimuli/collisions/hit/stim13.mp4,f,2.579,,TRUE,723.5013,730.1994,0,1,[0.9745000000000346],[0.9745000000000346],red,green,blue,100,0,730.2007,731.3494,0,[],[],1,[731.3566000000088],[731.3566000000088],731.3496,738.0085,1.191,115,TRUE,TRUE,738.0086,745.5371,"[""space""]",[5.516200000002982],[null],765.6752,766.5417,f,0.5441,,9,"[1.45,0.54,0.58,0.7,0.83,1.07,0.77,0.46,0.69,0.54]",9,0,9,0,1,,,,,,,,,,,,,,,,,,,,,,,,,,,,,,,,,,
,,,,,697a75a62232e02fbcdf2a29,2026-02-02_15h23.43.512,causal,2025.1.1,MacIntel,120.4819277,,,,,,,,,,,,,,,,,,,,,,,,,,,,,,,,,,,,,,,,,,,,,,,,,,,,,,,,,,,,,,,,,,,,,,,,,,,,,,,,,,,,,,,,,16,0,16,0,1,,,,,,,,,,,,,,,,,,,,,,,,,,,,,
,,,,,697a75a62232e02fbcdf2a29,2026-02-02_15h23.43.512,causal,2025.1.1,MacIntel,120.4819277,,,,,,,,,,,,,,,,,,,,,,,,,,,,,,,,766.5422,767.4236,767.4237,767.4237,test,781.4501,781.4503,768.9258,771.2826,blue,stimuli/collisions/hit/stim18.mp4,f,2.0298,,TRUE,771.2838,778.2248,0,1,[0.9585999999940213],[0.9587000000029775],red,green,blue,100,0,778.2263,779.2494,0,[],[],1,[779.2567000000029],[779.2567000000029],779.2496,781.4496,1.1102,145,TRUE,FALSE,781.4496,781.4496,,,,781.4503,781.4504,,,,,,0,0,0,0,1,,,,,,,,,,,,,,,,,,,,,,,,,,,,,,,,,,
,,,,,697a75a62232e02fbcdf2a29,2026-02-02_15h23.43.512,causal,2025.1.1,MacIntel,120.4819277,,,,,,,,,,,,,,,,,,,,,,,,,,,,,,,,,,,,,,,,,,,,,,,,,,,,,,,,,,,,,,,,,,,,,,,,,,,,,,,,,,,,,,,,,17,0,17,0,1,,,,,,,,,,,,,,,,,,,,,,,,,,,,,
,,,,,697a75a62232e02fbcdf2a29,2026-02-02_15h23.43.512,causal,2025.1.1,MacIntel,120.4819277,,,,,,,,,,,,,,,,,,,,,,,,,,,,,,,,781.4505,783.4911,783.4911,783.4911,test,797.2331,797.2332,784.9925,787.95,green,stimuli/collisions/hit/stim3.mp4,k,2.6291,,TRUE,787.9528,793.9666,100,1,[1.0425999999940814],[1.0425999999940814],red,green,blue,0,0,793.9682,794.9163,0,[],[],1,[794.9234000000058],[794.9234000000058],794.9166,797.2328,0.7109,170,TRUE,FALSE,797.2328,797.2328,,,,797.2332,797.2334,,,,,,0,0,0,0,1,,,,,,,,,,,,,,,,,,,,,,,,,,,,,,,,,,
,,,,,697a75a62232e02fbcdf2a29,2026-02-02_15h23.43.512,causal,2025.1.1,MacIntel,120.4819277,,,,,,,,,,,,,,,,,,,,,,,,,,,,,,,,,,,,,,,,,,,,,,,,,,,,,,,,,,,,,,,,,,,,,,,,,,,,,,,,,,,,,,,,,18,0,18,0,1,,,,,,,,,,,,,,,,,,,,,,,,,,,,,
,,,,,697a75a62232e02fbcdf2a29,2026-02-02_15h23.43.512,causal,2025.1.1,MacIntel,120.4819277,,,,,,,,,,,,,,,,,,,,,,,,,,,,,,,,797.2334,800.2738,800.2739,800.2739,test,826.1298,826.1298,801.7756,804.1246,red,stimuli/collisions/hit/stim1.mp4,j,2.0304,,TRUE,804.1264,809.7585,0,1,[0.8086999999879936],[0.8086999999879936],red,green,blue,0,100,809.7601,810.733,0,[],[],1,[810.7401000000089],[810.7401000000089],810.7331,826.1291,1.3396,200,TRUE,FALSE,826.1292,826.1292,,,,826.1299,826.1301,,,,,,0,0,0,0,1,,,,,,,,,,,,,,,,,,,,,,,,,,,,,,,,,,
,,,,,697a75a62232e02fbcdf2a29,2026-02-02_15h23.43.512,causal,2025.1.1,MacIntel,120.4819277,,,,,,,,,,,,,,,,,,,,,,,,,,,,,,,,,,,,,,,,,,,,,,,,,,,,,,,,,,,,,,,,,,,,,,,,,,,,,,,,,,,,,,,,,19,0,19,0,1,,,,,,,,,,,,,,,,,,,,,,,,,,,,,
,,,,,697a75a62232e02fbcdf2a29,2026-02-02_15h23.43.512,causal,2025.1.1,MacIntel,120.4819277,,,,,,,,,,,,,,,,,,,,,,,,,,,,,,,,826.1302,827.8459,827.846,827.8461,test,844.1176,844.1176,829.3499,831.7667,green,stimuli/collisions/hit/stim7.mp4,k,2.0904,,TRUE,831.7696,838.8416,98,1,[1.608399999991093],[1.608399999991093],red,green,blue,0,0,838.8426,840.0747,0,[],[],1,[840.0819000000058],[840.0819000000058],840.0751,844.1167,1.1796,230,TRUE,FALSE,844.1168,844.1168,,,,844.1176,844.1181,,,,,,0,0,0,0,1,,,,,,,,,,,,,,,,,,,,,,,,,,,,,,,,,,
,,,,,697a75a62232e02fbcdf2a29,2026-02-02_15h23.43.512,causal,2025.1.1,MacIntel,120.4819277,,,,,,,,,,,,,,,,,,,,,,,,,,,,,,,,,,,,,,,,,,,,,,,,,,,,,,,,,,,,,,,,,,,,,,,,,,,,,,,,,,,,,,,,,20,0,20,0,1,,,,,,,,,,,,,,,,,,,,,,,,,,,,,
,,,,,697a75a62232e02fbcdf2a29,2026-02-02_15h23.43.512,causal,2025.1.1,MacIntel,120.4819277,,,,,,,,,,,,,,,,,,,,,,,,,,,,,,,,844.1182,846.7326,846.7327,846.7327,catch,866.3169,866.3171,848.2337,851.8995,miss,stimuli/collisions/miss/stim5.mp4,space,3.338,,TRUE,851.9013,851.9045,,0,[],[],red,green,blue,,,851.9056,853.4244,0,[],[],1,[853.4317000000029],[853.4317000000029],853.4247,866.3164,0.662,255,TRUE,FALSE,866.3164,866.3165,,,,866.3171,866.3174,,,,,,0,0,0,0,1,,,,,,,,,,,,,,,,,,,,,,,,,,,,,,,,,,
,,,,,697a75a62232e02fbcdf2a29,2026-02-02_15h23.43.512,causal,2025.1.1,MacIntel,120.4819277,,,,,,,,,,,,,,,,,,,,,,,,,,,,,,,,,,,,,,,,,,,,,,,,,,,,,,,,,,,,,,,,,,,,,,,,,,,,,,,,,,,,,,,,,21,0,21,0,1,,,,,,,,,,,,,,,,,,,,,,,,,,,,,
,,,,,697a75a62232e02fbcdf2a29,2026-02-02_15h23.43.512,causal,2025.1.1,MacIntel,120.4819277,,,,,,,,,,,,,,,,,,,,,,,,,,,,,,,,866.3175,868.3085,868.3086,868.3087,test,900.5919,901.5999,869.8177,872.5,miss,stimuli/collisions/hit/stim2.mp4,space,2.352,,TRUE,872.5031,872.5076,,0,[],[],red,green,blue,,,872.5088,876.0163,1,[876.023799999997],[876.023799999997],0,[],[],876.0167,878.6419,1.558,250,FALSE,TRUE,878.642,882.9252,"[""space""]",[2.265700000002994],[null],901.6,902.5006,k,0.5714,,9,"[0.59,0.67,0.83,0.71,0.61,0.66,0.65,0.44,0.46,0.57]",9,0,9,0,1,,,,,,,,,,,,,,,,,,,,,,,,,,,,,,,,,,
,,,,,697a75a62232e02fbcdf2a29,2026-02-02_15h23.43.512,causal,2025.1.1,MacIntel,120.4819277,,,,,,,,,,,,,,,,,,,,,,,,,,,,,,,,,,,,,,,,,,,,,,,,,,,,,,,,,,,,,,,,,,,,,,,,,,,,,,,,,,,,,,,,,22,0,22,0,1,,,,,,,,,,,,,,,,,,,,,,,,,,,,,
,,,,,697a75a62232e02fbcdf2a29,2026-02-02_15h23.43.512,causal,2025.1.1,MacIntel,120.4819277,,,,,,,,,,,,,,,,,,,,,,,,,,,,,,,,902.5011,903.3997,903.3997,903.3997,catch,931.8474,931.8475,904.9089,907.5579,miss,stimuli/collisions/miss/stim1.mp4,space,2.3197,,TRUE,907.5607,907.5634,,0,[],[],red,green,blue,,,907.5643,908.9585,0,[],[],1,[908.9657000000029],[908.9657000000029],908.9588,931.8462,1.6803,280,TRUE,FALSE,931.8462,931.8464,,,,931.8476,931.8481,,,,,,0,0,0,0,1,,,,,,,,,,,,,,,,,,,,,,,,,,,,,,,,,,
,,,,,697a75a62232e02fbcdf2a29,2026-02-02_15h23.43.512,causal,2025.1.1,MacIntel,120.4819277,,,,,,,,,,,,,,,,,,,,,,,,,,,,,,,,,,,,,,,,,,,,,,,,,,,,,,,,,,,,,,,,,,,,,,,,,,,,,,,,,,,,,,,,,23,0,23,0,1,,,,,,,,,,,,,,,,,,,,,,,,,,,,,
,,,,,697a75a62232e02fbcdf2a29,2026-02-02_15h23.43.512,causal,2025.1.1,MacIntel,120.4819277,,,,,,,,,,,,,,,,,,,,,,,,,,,,,,,,931.8484,933.8711,933.8712,933.8712,test,975.237,976.2379,935.3791,937.8119,red,stimuli/collisions/hit/stim17.mp4,j,2.1047,,TRUE,937.8148,945.6626,23,1,[0.991700000002993],[0.991700000002993],red,green,blue,0,72,945.6645,947.0126,0,[],[],1,[947.0194999999999],[947.0194999999999],947.0128,954.0452,2.2053,315,TRUE,TRUE,954.0453,957.2371,"[""space""]",[1.18649999999991],[null],976.238,977.1865,k,0.621,,9,"[0.67,0.79,0.64,0.81,0.65,0.58,0.61,0.62,0.61,0.62]",9,0,9,0,1,,,,,,,,,,,,,,,,,,,,,,,,,,,,,,,,,,
,,,,,697a75a62232e02fbcdf2a29,2026-02-02_15h23.43.512,causal,2025.1.1,MacIntel,120.4819277,,,,,,,,,,,,,,,,,,,,,,,,,,,,,,,,,,,,,,,,,,,,,,,,,,,,,,,,,,,,,,,,,,,,,,,,,,,,,,,,,,,,,,,,,24,0,24,0,1,,,,,,,,,,,,,,,,,,,,,,,,,,,,,
,,,,,697a75a62232e02fbcdf2a29,2026-02-02_15h23.43.512,causal,2025.1.1,MacIntel,120.4819277,,,,,,,,,,,,,,,,,,,,,,,,,,,,,,,,977.1867,978.0541,978.0542,978.0542,catch,985.4883,985.4883,979.5622,981.5863,miss,stimuli/collisions/miss/stim6.mp4,space,1.6989,,TRUE,981.5885,981.5912,,0,[],[],red,green,blue,,,981.592,982.8949,0,[],[],1,[982.9021000000089],[982.9021000000089],982.8952,985.4874,2.3011,350,TRUE,FALSE,985.4875,985.4876,,,,985.4883,985.4888,,,,,,0,0,0,0,1,,,,,,,,,,,,,,,,,,,,,,,,,,,,,,,,,,
,,,,,697a75a62232e02fbcdf2a29,2026-02-02_15h23.43.512,causal,2025.1.1,MacIntel,120.4819277,,,,,,,,,,,,,,,,,,,,,,,,,,,,,,,,,,,,,,,,,,,,,,,,,,,,,,,,,,,,,,,,,,,,,,,,,,,,,,,,,,,,,,,,,25,0,25,0,1,,,,,,,,,,,,,,,,,,,,,,,,,,,,,
,,,,,697a75a62232e02fbcdf2a29,2026-02-02_15h23.43.512,causal,2025.1.1,MacIntel,120.4819277,,,,,,,,,,,,,,,,,,,,,,,,,,,,,,,,985.4889,986.9625,986.9626,986.9626,catch,1015.7309,1016.7379,988.4706,990.8627,green,stimuli/collisions/miss/stim3.mp4,k,2.0676,,TRUE,990.8655,1002.4375,10,1,[1.1166999999881],[1.1166999999881],red,green,blue,0,0,1002.4389,1003.4532,1,[1003.4604999999999],[1003.4604999999999],0,[],[],1003.4533,1012.5544,1.9324,345,FALSE,TRUE,1012.5544,1015.7296,"[""space""]",[1.1572000000030584],[null],1016.7382,1016.739,,,,,,0,0,0,0,1,,,,,,,,,,,,,,,,,,,,,,,,,,,,,,,,,,
,,,,,697a75a62232e02fbcdf2a29,2026-02-02_15h23.43.512,causal,2025.1.1,MacIntel,120.4819277,,,,,,,,,,,,,,,,,,,,,,,,,,,,,,,,,,,,,,,,,,,,,,,,,,,,,,,,,,,,,,,,,,,,,,,,,,,,,,,,,,,,,,,,,26,0,26,0,1,,,,,,,,,,,,,,,,,,,,,,,,,,,,,
,,,,,697a75a62232e02fbcdf2a29,2026-02-02_15h23.43.512,causal,2025.1.1,MacIntel,120.4819277,,,,,,,,,,,,,,,,,,,,,,,,,,,,,,,,,,,,,,,,,,,,,,,,,,,,,,,,,,,,,,,,,,,,,,,,,,,,,,,,,,,,,,,,,,,,,,1016.7398,1023.0964,,,,,,,,,,,,,,,,,,,,,,,,,,,
,,,,,697a75a62232e02fbcdf2a29,2026-02-02_15h23.43.512,causal,2025.1.1,MacIntel,120.4819277,,,,,,,,,,,,,,,,,,,,,,,,,,,,,,,,,,,,,,,,,,,,,,,,,,,,,,,,,,,,,,,,,,,,,,,,,,,,,,,,,,,,,,,,,,,,,,,,1023.0967,1040.2367,,,,,,,,,,,,,,,,,,,,,,,,,
,,,,,697a75a62232e02fbcdf2a29,2026-02-02_15h23.43.512,causal,2025.1.1,MacIntel,120.4819277,,,,,,,,,,,,,,,,,,,,,,,,,,,,,,,,1040.2377,1041.2705,,,,1041.2709,1042.7794,,,,stimuli/collisions/calibration/stim14.mp4,,,,,,,,,,,,,,,,,,,,,,,,,,,,,,,,,,,,,,,,,,,,,,,,,,,,,,,,1041.2708,1041.2709,1042.7804,1046.2378,1046.2385,1049.2622,0,[],[],1,[1049.2627000000032],[1049.2627000000032],TRUE,FALSE,FALSE,1049.2623,1052.1214,"[""space""]",[1.8464999999998781],[null],0,0,0,0,1
,,,,,697a75a62232e02fbcdf2a29,2026-02-02_15h23.43.512,causal,2025.1.1,MacIntel,120.4819277,,,,,,,,,,,,,,,,,,,,,,,,,,,,,,,,1052.1218,1054.2629,,,,1054.2634,1055.7707,,,,stimuli/collisions/calibration/stim18.mp4,,,,,,,,,,,,,,,,,,,,,,,,,,,,,,,,,,,,,,,,,,,,,,,,,,,,,,,,1054.2632,1054.2634,1055.7711,1059.1707,1059.1717,1060.3124,1,[1060.313],[1060.313],0,[],[],FALSE,FALSE,TRUE,1060.3124,1062.3294,"[""space""]",[1.0007000000027801],[null],1,0,1,0,1
,,,,,697a75a62232e02fbcdf2a29,2026-02-02_15h23.43.512,causal,2025.1.1,MacIntel,120.4819277,,,,,,,,,,,,,,,,,,,,,,,,,,,,,,,,1062.3298,1063.9795,,,,1063.9799,1065.4881,,,,stimuli/collisions/calibration/stim6.mp4,,,,,,,,,,,,,,,,,,,,,,,,,,,,,,,,,,,,,,,,,,,,,,,,,,,,,,,,1063.9798,1063.9799,1065.4887,1068.153,1068.1543,1069.4123,1,[1069.413],[1069.413],0,[],[],FALSE,FALSE,TRUE,1069.4123,1070.9796,"[""space""]",[0.5582999999971889],[null],2,0,2,0,1
,,,,,697a75a62232e02fbcdf2a29,2026-02-02_15h23.43.512,causal,2025.1.1,MacIntel,120.4819277,,,,,,,,,,,,,,,,,,,,,,,,,,,,,,,,1070.9801,1072.3872,,,,1072.3874,1073.8877,,,,stimuli/collisions/calibration/stim3.mp4,,,,,,,,,,,,,,,,,,,,,,,,,,,,,,,,,,,,,,,,,,,,,,,,,,,,,,,,1072.3874,1072.3874,1073.8883,1078.0128,1078.0155,1078.379,1,[1078.379800000012],[1078.379800000012],0,[],[],FALSE,FALSE,TRUE,1078.3792,1080.7379,"[""space""]",[1.3506000000088534],[null],3,0,3,0,1
,,,,,697a75a62232e02fbcdf2a29,2026-02-02_15h23.43.512,causal,2025.1.1,MacIntel,120.4819277,,,,,,,,,,,,,,,,,,,,,,,,,,,,,,,,1080.7385,1081.8793,,,,1081.8797,1083.3879,,,,stimuli/collisions/calibration/stim7.mp4,,,,,,,,,,,,,,,,,,,,,,,,,,,,,,,,,,,,,,,,,,,,,,,,,,,,,,,,1081.8795,1081.8797,1083.3886,1086.0543,1086.0569,1087.2208,0,[],[],1,[1087.2212999999972],[1087.2212999999972],TRUE,TRUE,TRUE,1087.2208,1090.0298,"[""space""]",[1.7937999999969634],[null],4,0,4,0,1
,,,,,697a75a62232e02fbcdf2a29,2026-02-02_15h23.43.512,causal,2025.1.1,MacIntel,120.4819277,,,,,,,,,,,,,,,,,,,,,,,,,,,,,,,,1090.0303,1092.6796,,,,1092.6799,1094.1873,,,,stimuli/collisions/calibration/stim4.mp4,,,,,,,,,,,,,,,,,,,,,,,,,,,,,,,,,,,,,,,,,,,,,,,,,,,,,,,,1092.6799,1092.6799,1094.1877,1096.9532,1096.9544,1097.4043,0,[],[],1,[1097.404799999997],[1097.404799999997],TRUE,TRUE,TRUE,1097.4044,1099.179,"[""space""]",[0.7605000000000928],[null],5,0,5,0,1
,,,,,697a75a62232e02fbcdf2a29,2026-02-02_15h23.43.512,causal,2025.1.1,MacIntel,120.4819277,,,,,,,,,,,,,,,,,,,,,,,,,,,,,,,,1099.1796,1100.9124,,,,1100.9126,1102.4207,,,,stimuli/collisions/calibration/stim16.mp4,,,,,,,,,,,,,,,,,,,,,,,,,,,,,,,,,,,,,,,,,,,,,,,,,,,,,,,,1100.9126,1100.9126,1102.4211,1106.0461,1106.0479,1106.4873,1,[1106.488],[1106.488],0,[],[],FALSE,FALSE,TRUE,1106.4875,1108.4614,"[""space""]",[0.9674999999999727],[null],6,0,6,0,1
,,,,,697a75a62232e02fbcdf2a29,2026-02-02_15h23.43.512,causal,2025.1.1,MacIntel,120.4819277,,,,,,,,,,,,,,,,,,,,,,,,,,,,,,,,1108.4616,1113.3213,,,,1113.3218,1114.8288,,,,stimuli/collisions/calibration/stim15.mp4,,,,,,,,,,,,,,,,,,,,,,,,,,,,,,,,,,,,,,,,,,,,,,,,,,,,,,,,1113.3216,1113.3218,1114.8294,1118.154,1118.1553,1118.8958,1,[1118.8965],[1118.8965],0,[],[],FALSE,TRUE,FALSE,1118.896,1121.088,"[""space""]",[1.175499999999829],[null],7,0,7,0,1
,,,,,697a75a62232e02fbcdf2a29,2026-02-02_15h23.43.512,causal,2025.1.1,MacIntel,120.4819277,,,,,,,,,,,,,,,,,,,,,,,,,,,,,,,,1121.0886,1124.1873,,,,1124.1876,1125.6961,,,,stimuli/collisions/calibration/stim9.mp4,,,,,,,,,,,,,,,,,,,,,,,,,,,,,,,,,,,,,,,,,,,,,,,,,,,,,,,,1124.1875,1124.1876,1125.6967,1128.796,1128.7987,1130.3115,1,[1130.312100000009],[1130.312200000003],0,[],[],FALSE,FALSE,TRUE,1130.3115,1131.8128,"[""space""]",[0.4928999999910957],[null],8,0,8,0,1
,,,,,697a75a62232e02fbcdf2a29,2026-02-02_15h23.43.512,causal,2025.1.1,MacIntel,120.4819277,,,,,,,,,,,,,,,,,,,,,,,,,,,,,,,,1131.8132,1132.713,,,,1132.7135,1134.22,,,,stimuli/collisions/calibration/stim10.mp4,,,,,,,,,,,,,,,,,,,,,,,,,,,,,,,,,,,,,,,,,,,,,,,,,,,,,,,,1132.7134,1132.7134,1134.2202,1136.9876,1136.9893,1137.479,0,[],[],1,[1137.4795000000001],[1137.4795000000001],TRUE,TRUE,TRUE,1137.4791,1139.1375,"[""space""]",[0.6424999999999272],[null],9,0,9,0,1
,,,,,697a75a62232e02fbcdf2a29,2026-02-02_15h23.43.512,causal,2025.1.1,MacIntel,120.4819277,,,,,,,,,,,,,,,,,,,,,,,,,,,,,,,,1139.1378,1139.9795,,,,1139.9798,1141.4869,,,,stimuli/collisions/calibration/stim19.mp4,,,,,,,,,,,,,,,,,,,,,,,,,,,,,,,,,,,,,,,,,,,,,,,,,,,,,,,,1139.9797,1139.9797,1141.4877,1144.546,1144.5477,1145.8136,0,[],[],1,[1145.813900000006],[1145.813900000006],TRUE,FALSE,FALSE,1145.8137,1148.0292,"[""space""]",[1.2004000000058568],[null],10,0,10,0,1
,,,,,697a75a62232e02fbcdf2a29,2026-02-02_15h23.43.512,causal,2025.1.1,MacIntel,120.4819277,,,,,,,,,,,,,,,,,,,,,,,,,,,,,,,,1148.0297,1149.4625,,,,1149.4626,1150.9713,,,,stimuli/collisions/calibration/stim13.mp4,,,,,,,,,,,,,,,,,,,,,,,,,,,,,,,,,,,,,,,,,,,,,,,,,,,,,,,,1149.4625,1149.4626,1150.9717,1153.8961,1153.8984,1154.8542,1,[1154.854900000006],[1154.854900000006],0,[],[],FALSE,FALSE,TRUE,1154.8543,1156.3451,"[""space""]",[0.4739000000060969],[null],11,0,11,0,1
,,,,,697a75a62232e02fbcdf2a29,2026-02-02_15h23.43.512,causal,2025.1.1,MacIntel,120.4819277,,,,,,,,,,,,,,,,,,,,,,,,,,,,,,,,1156.3452,1157.038,,,,1157.0383,1158.5464,,,,stimuli/collisions/calibration/stim12.mp4,,,,,,,,,,,,,,,,,,,,,,,,,,,,,,,,,,,,,,,,,,,,,,,,,,,,,,,,1157.0383,1157.0383,1158.547,1161.3708,1161.3729,1161.8047,0,[],[],1,[1161.8052000000032],[1161.8052000000032],TRUE,FALSE,FALSE,1161.8047,1163.9959,"[""space""]",[1.1759000000058677],[null],12,0,12,0,1
,,,,,697a75a62232e02fbcdf2a29,2026-02-02_15h23.43.512,causal,2025.1.1,MacIntel,120.4819277,,,,,,,,,,,,,,,,,,,,,,,,,,,,,,,,1163.9963,1165.1791,,,,1165.1794,1166.6839,,,,stimuli/collisions/calibration/stim5.mp4,,,,,,,,,,,,,,,,,,,,,,,,,,,,,,,,,,,,,,,,,,,,,,,,,,,,,,,,1165.1793,1165.1794,1166.6847,1170.8795,1170.8824,1171.6125,0,[],[],1,[1171.613],[1171.613],TRUE,FALSE,FALSE,1171.6126,1173.6796,"[""space""]",[1.0578000000118664],[null],13,0,13,0,1
,,,,,697a75a62232e02fbcdf2a29,2026-02-02_15h23.43.512,causal,2025.1.1,MacIntel,120.4819277,,,,,,,,,,,,,,,,,,,,,,,,,,,,,,,,1173.6802,1176.4042,,,,1176.4044,1177.9129,,,,stimuli/collisions/calibration/stim2.mp4,,,,,,,,,,,,,,,,,,,,,,,,,,,,,,,,,,,,,,,,,,,,,,,,,,,,,,,,1176.4043,1176.4044,1177.9135,1181.6127,1181.6155,1182.2207,0,[],[],1,[1182.2212999999972],[1182.2212999999972],TRUE,TRUE,TRUE,1182.2207,1184.5002,"[""space""]",[1.266599999994014],[null],14,0,14,0,1
,,,,,697a75a62232e02fbcdf2a29,2026-02-02_15h23.43.512,causal,2025.1.1,MacIntel,120.4819277,,,,,,,,,,,,,,,,,,,,,,,,,,,,,,,,1184.5005,1187.0377,,,,1187.038,1188.5463,,,,stimuli/collisions/calibration/stim20.mp4,,,,,,,,,,,,,,,,,,,,,,,,,,,,,,,,,,,,,,,,,,,,,,,,,,,,,,,,1187.0379,1187.038,1188.5468,1191.3129,1191.3149,1191.7042,0,[],[],1,[1191.7047000000032],[1191.7047000000032],TRUE,TRUE,TRUE,1191.7043,1193.8657,"[""space""]",[1.1481000000089807],[null],15,0,15,0,1
,,,,,697a75a62232e02fbcdf2a29,2026-02-02_15h23.43.512,causal,2025.1.1,MacIntel,120.4819277,,,,,,,,,,,,,,,,,,,,,,,,,,,,,,,,1193.8661,1194.9672,,,,1194.9675,1196.475,,,,stimuli/collisions/calibration/stim1.mp4,,,,,,,,,,,,,,,,,,,,,,,,,,,,,,,,,,,,,,,,,,,,,,,,,,,,,,,,1194.9675,1194.9675,1196.4753,1199.8002,1199.8015,1200.3824,1,[1200.3831000000089],[1200.3831000000089],0,[],[],FALSE,FALSE,TRUE,1200.3825,1202.7338,"[""space""]",[1.3424000000059095],[null],16,0,16,0,1
,,,,,697a75a62232e02fbcdf2a29,2026-02-02_15h23.43.512,causal,2025.1.1,MacIntel,120.4819277,,,,,,,,,,,,,,,,,,,,,,,,,,,,,,,,1202.7343,1203.6421,,,,1203.6424,1205.15,,,,stimuli/collisions/calibration/stim8.mp4,,,,,,,,,,,,,,,,,,,,,,,,,,,,,,,,,,,,,,,,,,,,,,,,,,,,,,,,1203.6422,1203.6424,1205.1503,1208.6754,1208.6782,1209.5249,0,[],[],1,[1209.5254000000061],[1209.5254000000061],TRUE,FALSE,FALSE,1209.525,1211.0418,"[""space""]",[0.5097999999970853],[null],17,0,17,0,1
,,,,,697a75a62232e02fbcdf2a29,2026-02-02_15h23.43.512,causal,2025.1.1,MacIntel,120.4819277,,,,,,,,,,,,,,,,,,,,,,,,,,,,,,,,1211.0422,1212.2083,,,,1212.2084,1213.7169,,,,stimuli/collisions/calibration/stim11.mp4,,,,,,,,,,,,,,,,,,,,,,,,,,,,,,,,,,,,,,,,,,,,,,,,,,,,,,,,1212.2083,1212.2084,1213.7174,1216.6168,1216.6201,1218.3417,0,[],[],1,[1218.342200000003],[1218.342200000003],TRUE,TRUE,TRUE,1218.3417,1219.9337,"[""space""]",[0.5857000000030439],[null],18,0,18,0,1
,,,,,697a75a62232e02fbcdf2a29,2026-02-02_15h23.43.512,causal,2025.1.1,MacIntel,120.4819277,,,,,,,,,,,,,,,,,,,,,,,,,,,,,,,,1219.9341,1221.0256,,,,1221.026,1222.5337,,,,stimuli/collisions/calibration/stim17.mp4,,,,,,,,,,,,,,,,,,,,,,,,,,,,,,,,,,,,,,,,,,,,,,,,,,,,,,,,1221.026,1221.026,1222.5342,1225.7327,1225.7352,1226.1001,0,[],[],1,[1226.100600000009],[1226.100600000009],TRUE,TRUE,TRUE,1226.1002,1227.4753,"[""space""]",[0.360399999990932],[null],19,0,19,0,1
